File: data/public/sdbs/processed/samples/(1,2-epoxyethyl)benzene.csv
Wavenumber,Intensity
4000.0,0.0
3994.74,92.1875
3989.47,92.1875
3984.21,92.1875
3978.95,92.1875
3973.68,91.875
3968.42,91.875
3963.16,91.875
3957.89,91.875
3952.63,92.1875
3947.37,92.1875
3942.11,92.1875
3936.84,92.1875
3931.58,91.875
3926.32,91.875
3921.05,91.875
3915.79,91.875
3910.53,91.875
3905.26,92.1875
3900.0,92.5
3894.74,92.5
3889.47,92.5
3884.21,92.1875
3878.95,91.875
3873.68,91.5625
3868.42,91.5625
3863.16,91.5625
3857.89,91.5625
3852.63,91.875
3847.37,92.1875
3842.11,92.5
3836.84,92.8125
3831.58,92.8125
3826.32,92.8125
3821.05,92.5
3815.79,92.5
3810.53,92.5
3805.26,92.8125
3800.0,92.8125
3794.74,93.125
3789.47,93.125
3784.21,93.125
3778.95,92.8125
3773.68,92.5
3768.42,92.1875
3763.16,91.875
3757.89,91.875
3752.63,91.875
3747.37,92.1875
3742.11,92.1875
3736.84,92.1875
3731.58,92.1875
3726.32,92.1875
3721.05,92.1875
3715.79,92.1875
3710.53,92.5
3705.26,92.5
3700.0,92.5
3694.74,92.8125
3689.47,92.8125
3684.21,92.5
3678.95,92.5
3673.68,92.1875
3668.42,92.1875
3663.16,92.5
3657.89,92.5
3652.63,92.5
3647.37,92.8125
3642.11,92.8125
3636.84,93.125
3631.58,93.125
3626.32,93.125
3621.05,93.4375
3615.79,93.4375
3610.53,93.75
3605.26,93.75
3600.0,93.75
3594.74,93.75
3589.47,93.75
3584.21,93.75
3578.95,94.0625
3573.68,94.0625
3568.42,94.0625
3563.16,94.0625
3557.89,94.375
3552.63,94.375
3547.37,94.375
3542.11,94.375
3536.84,94.375
3531.58,94.375
3526.32,94.0625
3521.05,94.0625
3515.79,94.0625
3510.53,94.0625
3505.26,94.0625
3500.0,94.0625
3494.74,93.75
3489.47,93.75
3484.21,93.4375
3478.95,93.4375
3473.68,93.4375
3468.42,93.125
3463.16,93.125
3457.89,93.125
3452.63,92.8125
3447.37,92.8125
3442.11,92.8125
3436.84,92.8125
3431.58,92.5
3426.32,92.1875
3421.05,92.1875
3415.79,92.1875
3410.53,91.875
3405.26,91.5625
3400.0,90.9375
3394.74,90.3125
3389.47,89.375
3384.21,85.9375
3378.95,85.3125
3373.68,82.5
3368.42,74.375
3363.16,74.375
3357.89,69.375
3352.63,59.0625
3347.37,54.375
3342.11,52.1875
3336.84,51.875
3331.58,51.25
3326.32,51.5625
3321.05,60.9375
3315.79,67.5
3310.53,64.6875
3305.26,58.125
3300.0,51.5625
3294.74,51.875
3289.47,61.5625
3284.21,72.1875
3278.95,79.375
3273.68,83.75
3268.42,85.0
3263.16,84.0625
3257.89,84.0625
3252.63,85.0
3247.37,75.625
3242.11,75.0
3236.84,81.875
3231.58,88.4375
3226.32,90.9375
3221.05,92.1875
3215.79,92.8125
3210.53,93.125
3205.26,93.125
3200.0,93.4375
3194.74,93.75
3189.47,94.0625
3184.21,94.375
3178.95,94.375
3173.68,94.375
3168.42,94.375
3163.16,94.375
3157.89,94.6875
3152.63,94.6875
3147.37,94.6875
3142.11,94.6875
3136.84,94.6875
3131.58,94.375
3126.32,94.375
3121.05,94.375
3115.79,94.6875
3110.53,94.6875
3105.26,95.0
3100.0,94.6875
3094.74,94.6875
3089.47,94.6875
3084.21,94.6875
3078.95,94.6875
3073.68,95.0
3068.42,94.6875
3063.16,94.6875
3057.89,94.375
3052.63,94.375
3047.37,94.375
3042.11,94.0625
3036.84,94.0625
3031.58,94.0625
3026.32,94.0625
3021.05,94.0625
3015.79,94.0625
3010.53,94.375
3005.26,94.375
3000.0,94.6875
2994.74,94.6875
2989.47,94.6875
2984.21,94.6875
2978.95,94.6875
2973.68,94.6875
2968.42,94.6875
2963.16,94.6875
2957.89,94.375
2952.63,94.375
2947.37,94.6875
2942.11,94.375
2936.84,94.375
2931.58,94.375
2926.32,94.375
2921.05,94.375
2915.79,94.6875
2910.53,94.6875
2905.26,94.6875
2900.0,94.6875
2894.74,94.6875
2889.47,94.6875
2884.21,94.6875
2878.95,94.6875
2873.68,94.375
2868.42,94.375
2863.16,94.375
2857.89,94.375
2852.63,94.375
2847.37,94.375
2842.11,94.375
2836.84,94.375
2831.58,94.0625
2826.32,94.0625
2821.05,93.75
2815.79,93.75
2810.53,93.75
2805.26,93.75
2800.0,93.4375
2794.74,93.125
2789.47,92.8125
2784.21,92.8125
2778.95,92.8125
2773.68,93.125
2768.42,93.4375
2763.16,93.4375
2757.89,93.4375
2752.63,93.4375
2747.37,93.4375
2742.11,93.75
2736.84,94.0625
2731.58,94.375
2726.32,94.6875
2721.05,94.6875
2715.79,94.6875
2710.53,94.375
2705.26,94.375
2700.0,94.375
2694.74,94.375
2689.47,94.6875
2684.21,94.6875
2678.95,94.6875
2673.68,94.6875
2668.42,94.375
2663.16,94.375
2657.89,94.375
2652.63,94.375
2647.37,94.375
2642.11,94.6875
2636.84,94.375
2631.58,94.0625
2626.32,93.75
2621.05,93.4375
2615.79,92.8125
2610.53,92.8125
2605.26,92.5
2600.0,92.1875
2594.74,91.875
2589.47,91.5625
2584.21,91.25
2578.95,90.625
2573.68,90.3125
2568.42,89.6875
2563.16,89.0625
2557.89,88.4375
2552.63,87.8125
2547.37,87.8125
2542.11,88.125
2536.84,89.0625
2531.58,90.625
2526.32,91.875
2521.05,92.8125
2515.79,93.4375
2510.53,93.4375
2505.26,93.4375
2500.0,93.4375
2494.74,93.125
2489.47,92.1875
2484.21,91.5625
2478.95,90.9375
2473.68,90.0
2468.42,89.6875
2463.16,89.0625
2457.89,88.75
2452.63,88.4375
2447.37,88.4375
2442.11,88.75
2436.84,90.0
2431.58,90.9375
2426.32,92.5
2421.05,93.125
2415.79,93.4375
2410.53,93.75
2405.26,93.75
2400.0,93.4375
2394.74,93.125
2389.47,92.8125
2384.21,92.1875
2378.95,91.5625
2373.68,90.9375
2368.42,90.625
2363.16,90.0
2357.89,89.375
2352.63,89.375
2347.37,89.375
2342.11,90.0
2336.84,90.9375
2331.58,92.1875
2326.32,93.125
2321.05,93.4375
2315.79,93.4375
2310.53,93.125
2305.26,92.5
2300.0,92.1875
2294.74,91.875
2289.47,90.9375
2284.21,90.3125
2278.95,89.6875
2273.68,89.6875
2268.42,89.6875
2263.16,89.6875
2257.89,90.0
2252.63,90.3125
2247.37,90.3125
2242.11,90.0
2236.84,89.375
2231.58,89.0625
2226.32,89.0625
2221.05,89.375
2215.79,90.625
2210.53,90.0
2205.26,85.9375
2200.0,82.8125
2194.74,83.125
2189.47,86.5625
2184.21,89.6875
2178.95,90.625
2173.68,90.3125
2168.42,90.3125
2163.16,90.3125
2157.89,90.3125
2152.63,90.625
2147.37,90.9375
2142.11,91.25
2136.84,91.5625
2131.58,91.875
2126.32,91.875
2121.05,91.875
2115.79,91.875
2110.53,91.25
2105.26,90.9375
2100.0,90.3125
2094.74,89.6875
2089.47,89.375
2084.21,88.75
2078.95,86.875
2073.68,79.6875
2068.42,71.5625
2063.16,73.4375
2057.89,81.25
2052.63,84.6875
2047.37,87.1875
2042.11,89.0625
2036.84,85.625
2031.58,85.9375
2026.32,89.375
2021.05,90.3125
2015.79,90.9375
2010.53,91.25
2005.26,91.25
2000,91.25
1994.74,90.9375
1989.47,90.625
1984.21,90.3125
1978.95,90.3125
1973.68,90.3125
1968.42,90.9375
1963.16,91.5625
1957.89,91.5625
1952.63,90.625
1947.37,89.6875
1942.11,89.375
1936.84,88.75
1931.58,86.5625
1926.32,81.5625
1921.05,63.4375
1915.79,35.625
1910.53,36.25
1905.26,64.375
1900.0,75.3125
1894.74,65.0
1889.47,44.6875
1884.21,43.125
1878.95,52.5
1873.68,69.6875
1868.42,78.75
1863.16,70.9375
1857.89,54.0625
1852.63,41.25
1847.37,48.125
1842.11,73.4375
1836.84,85.0
1831.58,88.75
1826.32,90.3125
1821.05,90.9375
1815.79,91.25
1810.53,91.5625
1805.26,91.25
1800.0,90.0
1794.74,88.75
1789.47,85.625
1784.21,79.375
1778.95,67.8125
1773.68,55.3125
1768.42,49.0625
1763.16,48.75
1757.89,52.1875
1752.63,66.875
1747.37,77.8125
1742.11,84.375
1736.84,87.1875
1731.58,89.0625
1726.32,90.3125
1721.05,90.9375
1715.79,91.5625
1710.53,91.875
1705.26,91.875
1700.0,91.25
1694.74,88.75
1689.47,85.625
1684.21,84.0625
1678.95,84.375
1673.68,85.625
1668.42,82.1875
1663.16,75.0
1657.89,74.0625
1652.63,76.875
1647.37,84.6875
1642.11,83.125
1636.84,75.9375
1631.58,76.875
1626.32,83.75
1621.05,87.1875
1615.79,88.75
1610.53,89.375
1605.26,89.0625
1600.0,87.5
1594.74,85.0
1589.47,79.375
1584.21,70.0
1578.95,59.375
1573.68,58.75
1568.42,68.125
1563.16,79.375
1557.89,85.0
1552.63,87.5
1547.37,89.0625
1542.11,89.6875
1536.84,89.6875
1531.58,89.375
1526.32,88.75
1521.05,87.5
1515.79,81.5625
1510.53,60.9375
1505.26,47.8125
1500.0,54.6875
1494.74,74.6875
1489.47,83.4375
1484.21,86.25
1478.95,85.0
1473.68,83.4375
1468.42,83.4375
1463.16,85.0
1457.89,85.3125
1452.63,84.0625
1447.37,81.875
1442.11,81.5625
1436.84,81.25
1431.58,79.0625
1426.32,77.8125
1421.05,78.75
1415.79,82.1875
1410.53,78.125
1405.26,73.75
1400.0,73.75
1394.74,77.8125
1389.47,84.375
1384.21,87.8125
1378.95,89.0625
1373.68,89.375
1368.42,90.0
1363.16,90.3125
1357.89,90.625
1352.63,90.0
1347.37,88.125
1342.11,84.0625
1336.84,74.6875
1331.58,72.5
1326.32,72.1875
1321.05,72.8125
1315.79,77.8125
1310.53,84.0625
1305.26,88.4375
1300.0,90.0
1294.74,90.625
1289.47,90.3125
1284.21,89.6875
1278.95,88.4375
1273.68,86.5625
1268.42,76.25
1263.16,68.4375
1257.89,73.125
1252.63,84.0625
1247.37,87.1875
1242.11,87.1875
1236.84,85.0
1231.58,72.8125
1226.32,70.0
1221.05,77.1875
1215.79,63.75
1210.53,49.375
1205.26,44.0625
1200.0,45.625
1194.74,62.5
1189.47,75.9375
1184.21,80.9375
1178.95,83.75
1173.68,85.625
1168.42,87.5
1163.16,88.75
1157.89,89.375
1152.63,89.375
1147.37,89.0625
1142.11,88.4375
1136.84,87.5
1131.58,86.25
1126.32,84.375
1121.05,82.1875
1115.79,78.75
1110.53,75.9375
1105.26,75.9375
1100.0,76.5625
1094.74,76.875
1089.47,74.0625
1084.21,70.0
1078.95,61.875
1073.68,49.0625
1068.42,32.8125
1063.16,18.4375
1057.89,10.9375
1052.63,10.3125
1047.37,13.125
1042.11,27.8125
1036.84,43.75
1031.58,58.4375
1026.32,67.8125
1021.05,72.5
1015.79,74.0625
1010.53,75.625
1005.26,78.4375
1000.0,78.4375
994.737,74.0625
989.474,67.5
984.211,62.1875
978.947,57.8125
973.684,54.0625
968.421,53.4375
963.158,53.75
957.895,55.0
952.632,59.375
947.368,64.6875
942.105,70.3125
936.842,75.0
931.579,78.75
926.316,76.5625
921.053,72.8125
915.789,65.3125
910.526,52.5
905.263,29.375
900.0,10.9375
894.737,5.3125
889.474,5.0
884.211,8.75
878.947,22.5
873.684,33.125
868.421,47.8125
863.158,59.0625
857.895,66.25
852.632,71.5625
847.368,75.625
842.105,79.0625
836.842,79.375
831.579,77.1875
826.316,68.75
821.053,45.3125
815.789,15.3125
810.526,5.0
805.263,4.6875
800.0,15.3125
794.737,49.375
789.474,66.25
784.211,77.5
778.947,82.1875
773.684,83.75
768.421,83.75
763.158,85.625
757.895,87.5
752.632,88.75
747.368,89.6875
742.105,90.3125
736.842,91.25
731.579,91.875
726.316,91.875
721.053,91.875
715.789,91.875
710.526,91.875
705.263,91.875
700,91.5625
694.737,91.5625
689.474,92.8125
684.211,92.8125
678.947,92.1875
673.684,91.875
668.421,90.9375
663.158,90.0
657.895,87.5
652.632,81.875
647.368,74.0625
642.105,54.6875
636.842,43.4375
631.579,48.75
626.316,72.5
621.053,82.1875
615.789,86.25
610.526,87.5
605.263,86.875
600,83.75
594.737,77.5
589.474,63.4375
584.211,44.375
578.947,39.6875
573.684,45
568.421,65.3125
563.158,77.8125
557.895,83.75
552.632,86.875
547.368,88.125
542.105,89.6875
536.842,90.625
531.579,91.5625
526.316,91.5625
521.053,91.5625
515.789,91.25
510.526,90.9375
505.263,90.9375
500,91.25
494.737,91.25
489.474,91.5625
484.211,91.875
478.947,92.1875
473.684,92.8125
468.421,93.4375
463.158,94.0625
457.895,94.6875
452.632,94.375
447.368,92.8125
442.105,91.25
436.842,88.4375
431.579,85.9375
426.316,83.75
421.053,82.8125
415.789,81.875
410.526,81.5625
405.263,81.25
400.0,80.9375