File: data/public/sdbs/processed/samples/(dimethylaminomethyl)ferrocene.csv
Wavenumber,Intensity
4000.0,0.0
3994.74,89.375
3989.47,89.0625
3984.21,88.75
3978.95,88.4375
3973.68,87.5
3968.42,86.25
3963.16,83.75
3957.89,81.5625
3952.63,79.0625
3947.37,78.75
3942.11,78.75
3936.84,80.625
3931.58,82.8125
3926.32,85.9375
3921.05,88.4375
3915.79,89.6875
3910.53,90.3125
3905.26,90.625
3900.0,90.625
3894.74,90.9375
3889.47,90.9375
3884.21,90.9375
3878.95,90.9375
3873.68,90.9375
3868.42,90.9375
3863.16,90.9375
3857.89,90.9375
3852.63,91.25
3847.37,91.25
3842.11,91.25
3836.84,91.25
3831.58,91.5625
3826.32,91.5625
3821.05,91.5625
3815.79,91.25
3810.53,91.25
3805.26,91.25
3800.0,90.9375
3794.74,90.625
3789.47,90.0
3784.21,88.75
3778.95,86.875
3773.68,85.3125
3768.42,84.375
3763.16,83.4375
3757.89,83.125
3752.63,83.125
3747.37,83.4375
3742.11,83.75
3736.84,84.375
3731.58,84.6875
3726.32,84.6875
3721.05,84.0625
3715.79,83.75
3710.53,83.125
3705.26,82.5
3700.0,81.875
3694.74,81.25
3689.47,80.625
3684.21,79.6875
3678.95,78.75
3673.68,77.8125
3668.42,77.1875
3663.16,76.25
3657.89,75.625
3652.63,75.0
3647.37,74.375
3642.11,73.4375
3636.84,72.5
3631.58,71.875
3626.32,71.25
3621.05,70.3125
3615.79,69.6875
3610.53,69.0625
3605.26,68.75
3600.0,68.125
3594.74,67.5
3589.47,66.875
3584.21,66.5625
3578.95,65.9375
3573.68,65.625
3568.42,65.3125
3563.16,65.0
3557.89,65.0
3552.63,65.0
3547.37,65.0
3542.11,65.3125
3536.84,65.3125
3531.58,65.625
3526.32,65.9375
3521.05,65.9375
3515.79,66.25
3510.53,66.25
3505.26,66.25
3500.0,66.5625
3494.74,66.5625
3489.47,66.875
3484.21,67.1875
3478.95,67.5
3473.68,67.5
3468.42,67.1875
3463.16,66.875
3457.89,66.5625
3452.63,66.5625
3447.37,66.25
3442.11,66.25
3436.84,66.25
3431.58,65.9375
3426.32,65.9375
3421.05,65.625
3415.79,65.625
3410.53,65.3125
3405.26,64.6875
3400.0,64.0625
3394.74,62.8125
3389.47,58.125
3384.21,47.8125
3378.95,35.0
3373.68,25.625
3368.42,24.6875
3363.16,28.4375
3357.89,33.4375
3352.63,44.375
3347.37,54.6875
3342.11,61.5625
3336.84,66.5625
3331.58,69.6875
3326.32,71.25
3321.05,72.5
3315.79,72.8125
3310.53,70.0
3305.26,62.8125
3300.0,47.1875
3294.74,30.0
3289.47,23.125
3284.21,20.9375
3278.95,20.9375
3273.68,18.4375
3268.42,11.25
3263.16,9.375
3257.89,9.6875
3252.63,13.4375
3247.37,21.5625
3242.11,30.9375
3236.84,31.5625
3231.58,36.25
3226.32,36.25
3221.05,35.625
3215.79,32.5
3210.53,23.75
3205.26,18.75
3200.0,19.6875
3194.74,33.4375
3189.47,30.9375
3184.21,17.1875
3178.95,9.6875
3173.68,9.0625
3168.42,15.9375
3163.16,25.9375
3157.89,15.0
3152.63,6.5625
3147.37,4.6875
3142.11,4.6875
3136.84,5.3125
3131.58,12.5
3126.32,30.9375
3121.05,45
3115.79,48.4375
3110.53,47.5
3105.26,52.8125
3100.0,61.25
3094.74,66.25
3089.47,71.875
3084.21,73.4375
3078.95,76.875
3073.68,81.5625
3068.42,84.375
3063.16,86.25
3057.89,87.1875
3052.63,87.8125
3047.37,87.8125
3042.11,87.8125
3036.84,87.8125
3031.58,87.8125
3026.32,88.4375
3021.05,89.0625
3015.79,89.6875
3010.53,90.0
3005.26,90.3125
3000.0,90.625
2994.74,90.9375
2989.47,90.9375
2984.21,90.625
2978.95,90.3125
2973.68,90.0
2968.42,89.6875
2963.16,89.0625
2957.89,88.75
2952.63,88.75
2947.37,88.75
2942.11,89.0625
2936.84,89.0625
2931.58,89.375
2926.32,89.6875
2921.05,90.3125
2915.79,90.625
2910.53,90.625
2905.26,90.3125
2900.0,90.3125
2894.74,90.3125
2889.47,90.3125
2884.21,90.625
2878.95,91.25
2873.68,91.875
2868.42,91.875
2863.16,92.1875
2857.89,91.875
2852.63,91.875
2847.37,91.875
2842.11,91.875
2836.84,91.875
2831.58,91.5625
2826.32,91.5625
2821.05,91.875
2815.79,91.875
2810.53,91.875
2805.26,90.9375
2800.0,90.0
2794.74,88.125
2789.47,86.875
2784.21,86.875
2778.95,87.1875
2773.68,87.8125
2768.42,88.4375
2763.16,90.0
2757.89,91.25
2752.63,91.25
2747.37,90.9375
2742.11,90.9375
2736.84,90.9375
2731.58,91.875
2726.32,92.5
2721.05,93.125
2715.79,93.4375
2710.53,93.4375
2705.26,93.4375
2700.0,92.8125
2694.74,91.875
2689.47,90.9375
2684.21,90.9375
2678.95,90.9375
2673.68,90.9375
2668.42,90.9375
2663.16,90.3125
2657.89,90.0
2652.63,89.6875
2647.37,90.0
2642.11,91.25
2636.84,93.125
2631.58,94.0625
2626.32,93.75
2621.05,93.4375
2615.79,93.4375
2610.53,93.4375
2605.26,93.4375
2600.0,93.125
2594.74,93.125
2589.47,93.125
2584.21,93.125
2578.95,93.4375
2573.68,93.4375
2568.42,94.0625
2563.16,94.375
2557.89,94.375
2552.63,94.6875
2547.37,94.6875
2542.11,94.6875
2536.84,94.6875
2531.58,94.6875
2526.32,94.6875
2521.05,94.6875
2515.79,94.6875
2510.53,94.6875
2505.26,94.6875
2500.0,94.6875
2494.74,94.6875
2489.47,94.6875
2484.21,94.375
2478.95,94.375
2473.68,94.0625
2468.42,93.75
2463.16,93.4375
2457.89,93.125
2452.63,92.8125
2447.37,92.8125
2442.11,92.5
2436.84,92.5
2431.58,92.5
2426.32,92.5
2421.05,92.8125
2415.79,92.8125
2410.53,92.8125
2405.26,92.8125
2400.0,93.125
2394.74,93.125
2389.47,93.4375
2384.21,93.4375
2378.95,93.4375
2373.68,93.4375
2368.42,93.4375
2363.16,93.125
2357.89,92.8125
2352.63,92.5
2347.37,91.875
2342.11,91.5625
2336.84,90.9375
2331.58,90.3125
2326.32,89.375
2321.05,87.8125
2315.79,86.5625
2310.53,84.6875
2305.26,82.8125
2300.0,81.25
2294.74,80.0
2289.47,78.4375
2284.21,77.5
2278.95,77.1875
2273.68,77.1875
2268.42,77.1875
2263.16,77.5
2257.89,77.1875
2252.63,76.5625
2247.37,75.625
2242.11,74.6875
2236.84,73.75
2231.58,72.8125
2226.32,71.875
2221.05,70.9375
2215.79,70.0
2210.53,69.6875
2205.26,68.4375
2200.0,66.5625
2194.74,65.0
2189.47,62.8125
2184.21,55.0
2178.95,44.6875
2173.68,42.5
2168.42,42.5
2163.16,46.5625
2157.89,51.5625
2152.63,54.6875
2147.37,55.625
2142.11,56.5625
2136.84,59.0625
2131.58,60.3125
2126.32,60.9375
2121.05,60.625
2115.79,60.3125
2110.53,60.3125
2105.26,61.25
2100.0,62.1875
2094.74,64.375
2089.47,66.5625
2084.21,68.75
2078.95,70.9375
2073.68,74.0625
2068.42,76.5625
2063.16,79.375
2057.89,81.875
2052.63,83.75
2047.37,85.3125
2042.11,85.9375
2036.84,86.875
2031.58,87.1875
2026.32,87.5
2021.05,88.125
2015.79,88.4375
2010.53,88.75
2005.26,89.375
2000,89.6875
1994.74,90.0
1989.47,90.0
1984.21,90.3125
1978.95,90.3125
1973.68,90.0
1968.42,90.0
1963.16,89.6875
1957.89,89.6875
1952.63,89.375
1947.37,89.0625
1942.11,88.4375
1936.84,87.8125
1931.58,86.5625
1926.32,85.3125
1921.05,84.375
1915.79,83.75
1910.53,81.875
1905.26,78.75
1900.0,73.4375
1894.74,66.25
1889.47,50.9375
1884.21,30.9375
1878.95,25.0
1873.68,19.0625
1868.42,19.375
1863.16,18.125
1857.89,12.1875
1852.63,12.1875
1847.37,19.6875
1842.11,34.6875
1836.84,36.875
1831.58,36.25
1826.32,38.4375
1821.05,44.0625
1815.79,49.375
1810.53,59.375
1805.26,65.0
1800.0,50.3125
1794.74,48.125
1789.47,53.125
1784.21,59.375
1778.95,60.625
1773.68,62.1875
1768.42,65.9375
1763.16,70.3125
1757.89,54.375
1752.63,45
1747.37,48.4375
1742.11,65.3125
1736.84,66.25
1731.58,67.5
1726.32,64.0625
1721.05,48.125
1715.79,39.6875
1710.53,32.8125
1705.26,31.875
1700.0,43.75
1694.74,63.4375
1689.47,69.375
1684.21,65.9375
1678.95,65.0
1673.68,66.25
1668.42,77.5
1663.16,83.75
1657.89,82.1875
1652.63,77.1875
1647.37,76.875
1642.11,80.9375
1636.84,84.375
1631.58,84.375
1626.32,82.5
1621.05,78.75
1615.79,72.1875
1610.53,60.3125
1605.26,46.25
1600.0,38.75
1594.74,36.5625
1589.47,31.5625
1584.21,30.9375
1578.95,32.5
1573.68,47.1875
1568.42,62.1875
1563.16,68.125
1557.89,68.4375
1552.63,52.1875
1547.37,44.0625
1542.11,45.625
1536.84,50.0
1531.58,50.3125
1526.32,61.875
1521.05,73.125
1515.79,78.75
1510.53,82.5
1505.26,83.75
1500.0,85.0
1494.74,84.6875
1489.47,81.25
1484.21,76.5625
1478.95,70.9375
1473.68,56.875
1468.42,35.0
1463.16,27.1875
1457.89,27.8125
1452.63,40.9375
1447.37,61.5625
1442.11,65.625
1436.84,71.875
1431.58,76.875
1426.32,71.5625
1421.05,55.625
1415.79,40.3125
1410.53,40.9375
1405.26,62.8125
1400.0,66.875
1394.74,65.9375
1389.47,72.8125
1384.21,76.5625
1378.95,51.5625
1373.68,5.9375
1368.42,6.5625
1363.16,45.3125
1357.89,46.875
1352.63,62.8125
1347.37,78.4375
1342.11,83.125
1336.84,83.75
1331.58,81.875
1326.32,79.375
1321.05,75.0
1315.79,68.75
1310.53,60.3125
1305.26,53.125
1300.0,44.375
1294.74,34.0625
1289.47,20.0
1284.21,9.0625
1278.95,8.75
1273.68,18.75
1268.42,15.625
1263.16,7.1875
1257.89,5.9375
1252.63,5.9375
1247.37,7.5
1242.11,16.875
1236.84,24.375
1231.58,15.9375
1226.32,14.0625
1221.05,17.5
1215.79,40.625
1210.53,61.25
1205.26,71.5625
1200.0,78.125
1194.74,82.5
1189.47,84.375
1184.21,85.625
1178.95,85.625
1173.68,81.875
1168.42,80.0
1163.16,80.0
1157.89,85.0
1152.63,89.6875
1147.37,89.6875
1142.11,85.3125
1136.84,79.375
1131.58,61.25
1126.32,51.5625
1121.05,53.75
1115.79,70.3125
1110.53,84.6875
1105.26,88.4375
1100.0,89.6875
1094.74,90.0
1089.47,88.4375
1084.21,86.25
1078.95,84.6875
1073.68,83.4375
1068.42,81.5625
1063.16,80.0
1057.89,78.125
1052.63,76.5625
1047.37,73.4375
1042.11,67.1875
1036.84,59.375
1031.58,52.5
1026.32,47.8125
1021.05,35.9375
1015.79,20.3125
1010.53,14.375
1005.26,14.375
1000.0,17.1875
994.737,13.4375
989.474,10.625
984.211,9.375
978.947,6.25
973.684,5.3125
968.421,5.9375
963.158,9.0625
957.895,12.5
952.632,17.8125
947.368,27.1875
942.105,38.4375
936.842,50.3125
931.579,64.0625
926.316,74.0625
921.053,80.9375
915.789,84.0625
910.526,86.875
905.263,88.125
900.0,85.3125
894.737,78.75
889.474,64.0625
884.211,52.8125
878.947,52.8125
873.684,57.5
868.421,70.0
863.158,79.6875
857.895,87.5
852.632,90.3125
847.368,93.125
842.105,94.375
836.842,95.0
831.579,94.6875
826.316,94.6875
821.053,94.6875
815.789,94.375
810.526,94.0625
805.263,94.0625
800.0,93.75
794.737,93.75
789.474,93.75
784.211,93.75
778.947,93.75
773.684,93.75
768.421,93.75
763.158,93.75
757.895,93.4375
752.632,93.4375
747.368,93.4375
742.105,93.75
736.842,94.0625
731.579,94.0625
726.316,94.375
721.053,94.0625
715.789,93.4375
710.526,93.125
705.263,91.875
700,87.5
694.737,85.3125
689.474,86.875
684.211,92.1875
678.947,92.5
673.684,91.5625
668.421,91.875
663.158,92.5
657.895,92.1875
652.632,91.875
647.368,91.875
642.105,92.1875
636.842,92.1875
631.579,92.1875
626.316,92.1875
621.053,92.5
615.789,92.8125
610.526,92.8125
605.263,92.5
600,91.875
594.737,90.625
589.474,89.375
584.211,87.1875
578.947,78.75
573.684,68.4375
568.421,48.125
563.158,29.6875
557.895,18.75
552.632,10.3125
547.368,10.0
542.105,13.4375
536.842,12.5
531.579,10.625
526.316,9.0625
521.053,7.8125
515.789,6.875
510.526,6.875
505.263,8.75
500,17.8125
494.737,38.125
489.474,55.625
484.211,59.6875
478.947,59.6875
473.684,64.0625
468.421,73.4375
463.158,76.5625
457.895,78.75
452.632,81.875
447.368,82.1875
442.105,79.375
436.842,75.3125
431.579,71.25
426.316,66.875
421.053,63.4375
415.789,60.0
410.526,57.1875
405.263,55.3125
400.0,54.375