File: data/public/sdbs/processed/samples/10-acetoxy-2,3-epoxy-4,9,10a,12-tetrahydroxy-1,1,4,12-tetramethylperhydro-7,8a-ethanobenz(f)azulene.csv
Wavenumber,Intensity
4000.0,0.0
3994.74,91.5625
3989.47,91.5625
3984.21,91.5625
3978.95,91.5625
3973.68,91.5625
3968.42,91.5625
3963.16,91.875
3957.89,91.875
3952.63,92.1875
3947.37,91.875
3942.11,91.875
3936.84,91.875
3931.58,91.875
3926.32,91.875
3921.05,91.875
3915.79,91.875
3910.53,92.1875
3905.26,92.1875
3900.0,92.5
3894.74,92.1875
3889.47,92.1875
3884.21,91.875
3878.95,91.875
3873.68,92.1875
3868.42,92.1875
3863.16,92.1875
3857.89,92.5
3852.63,92.1875
3847.37,92.1875
3842.11,92.5
3836.84,92.5
3831.58,92.8125
3826.32,93.125
3821.05,93.125
3815.79,93.125
3810.53,93.125
3805.26,93.4375
3800.0,93.4375
3794.74,93.4375
3789.47,93.125
3784.21,93.125
3778.95,93.4375
3773.68,93.75
3768.42,93.4375
3763.16,93.125
3757.89,92.8125
3752.63,92.1875
3747.37,91.875
3742.11,91.25
3736.84,90.625
3731.58,89.6875
3726.32,87.5
3721.05,84.375
3715.79,64.375
3710.53,52.1875
3705.26,66.875
3700.0,72.5
3694.74,74.6875
3689.47,74.375
3684.21,72.1875
3678.95,70.9375
3673.68,69.6875
3668.42,67.1875
3663.16,60.625
3657.89,52.1875
3652.63,42.8125
3647.37,40.625
3642.11,41.25
3636.84,47.8125
3631.58,52.5
3626.32,55.3125
3621.05,56.25
3615.79,55.625
3610.53,55.0
3605.26,54.6875
3600.0,54.6875
3594.74,55.0
3589.47,55.9375
3584.21,58.125
3578.95,60.625
3573.68,64.6875
3568.42,68.4375
3563.16,70.9375
3557.89,73.4375
3552.63,75.3125
3547.37,76.5625
3542.11,77.8125
3536.84,78.75
3531.58,79.6875
3526.32,80.3125
3521.05,80.625
3515.79,80.9375
3510.53,80.3125
3505.26,79.6875
3500.0,79.375
3494.74,79.375
3489.47,80.0
3484.21,80.9375
3478.95,81.875
3473.68,82.5
3468.42,82.8125
3463.16,83.4375
3457.89,83.75
3452.63,83.75
3447.37,84.0625
3442.11,84.375
3436.84,84.375
3431.58,84.6875
3426.32,85.0
3421.05,85.0
3415.79,85.0
3410.53,85.3125
3405.26,85.625
3400.0,85.9375
3394.74,86.25
3389.47,86.5625
3384.21,86.875
3378.95,87.1875
3373.68,87.5
3368.42,88.125
3363.16,87.8125
3357.89,85.3125
3352.63,83.75
3347.37,85.625
3342.11,85.625
3336.84,85.625
3331.58,85.0
3326.32,84.6875
3321.05,82.1875
3315.79,78.75
3310.53,68.4375
3305.26,66.875
3300.0,55.625
3294.74,43.4375
3289.47,33.75
3284.21,18.125
3278.95,11.5625
3273.68,11.5625
3268.42,11.875
3263.16,8.4375
3257.89,5.0
3252.63,4.6875
3247.37,5.9375
3242.11,10.0
3236.84,14.6875
3231.58,19.6875
3226.32,23.125
3221.05,25.625
3215.79,22.8125
3210.53,18.75
3205.26,14.375
3200.0,15.3125
3194.74,30.625
3189.47,55.3125
3184.21,69.375
3178.95,77.1875
3173.68,80.625
3168.42,83.75
3163.16,85.625
3157.89,87.1875
3152.63,88.125
3147.37,89.375
3142.11,89.6875
3136.84,90.0
3131.58,90.0
3126.32,89.6875
3121.05,89.375
3115.79,89.375
3110.53,89.375
3105.26,89.375
3100.0,89.6875
3094.74,89.6875
3089.47,89.0625
3084.21,89.375
3078.95,89.375
3073.68,89.375
3068.42,89.6875
3063.16,90.0
3057.89,90.3125
3052.63,90.625
3047.37,90.625
3042.11,90.9375
3036.84,90.9375
3031.58,91.25
3026.32,91.5625
3021.05,91.875
3015.79,92.1875
3010.53,92.1875
3005.26,92.5
3000.0,92.8125
2994.74,93.125
2989.47,92.8125
2984.21,92.8125
2978.95,92.8125
2973.68,93.125
2968.42,93.125
2963.16,93.4375
2957.89,93.75
2952.63,93.75
2947.37,93.75
2942.11,93.75
2936.84,93.75
2931.58,93.4375
2926.32,93.4375
2921.05,93.4375
2915.79,93.75
2910.53,93.4375
2905.26,93.4375
2900.0,93.4375
2894.74,93.4375
2889.47,93.4375
2884.21,93.75
2878.95,93.75
2873.68,93.75
2868.42,93.75
2863.16,93.75
2857.89,93.75
2852.63,93.75
2847.37,93.4375
2842.11,93.4375
2836.84,93.4375
2831.58,93.4375
2826.32,93.4375
2821.05,93.4375
2815.79,93.75
2810.53,93.75
2805.26,93.75
2800.0,94.0625
2794.74,94.0625
2789.47,93.75
2784.21,93.75
2778.95,93.75
2773.68,93.75
2768.42,93.75
2763.16,93.75
2757.89,93.75
2752.63,94.0625
2747.37,94.0625
2742.11,94.0625
2736.84,93.75
2731.58,93.75
2726.32,94.0625
2721.05,94.0625
2715.79,94.0625
2710.53,93.75
2705.26,93.75
2700.0,93.75
2694.74,93.75
2689.47,93.75
2684.21,93.75
2678.95,94.0625
2673.68,94.0625
2668.42,94.0625
2663.16,94.0625
2657.89,94.0625
2652.63,94.0625
2647.37,94.0625
2642.11,94.0625
2636.84,94.0625
2631.58,94.0625
2626.32,94.0625
2621.05,94.375
2615.79,94.375
2610.53,94.375
2605.26,94.375
2600.0,94.375
2594.74,94.375
2589.47,94.375
2584.21,94.375
2578.95,94.375
2573.68,94.375
2568.42,94.375
2563.16,94.375
2557.89,94.375
2552.63,94.375
2547.37,94.375
2542.11,94.375
2536.84,94.375
2531.58,94.375
2526.32,94.6875
2521.05,94.6875
2515.79,94.6875
2510.53,94.6875
2505.26,94.6875
2500.0,94.6875
2494.74,94.6875
2489.47,94.6875
2484.21,94.6875
2478.95,94.375
2473.68,94.375
2468.42,94.375
2463.16,94.375
2457.89,94.375
2452.63,94.375
2447.37,94.375
2442.11,94.6875
2436.84,94.6875
2431.58,94.6875
2426.32,94.6875
2421.05,94.6875
2415.79,94.6875
2410.53,94.6875
2405.26,94.6875
2400.0,95.0
2394.74,95.0
2389.47,95.0
2384.21,94.6875
2378.95,94.6875
2373.68,94.6875
2368.42,94.6875
2363.16,94.6875
2357.89,94.6875
2352.63,94.6875
2347.37,94.375
2342.11,94.375
2336.84,94.375
2331.58,94.375
2326.32,94.375
2321.05,94.375
2315.79,94.375
2310.53,94.0625
2305.26,94.0625
2300.0,94.0625
2294.74,94.0625
2289.47,94.0625
2284.21,93.75
2278.95,93.75
2273.68,93.75
2268.42,93.4375
2263.16,93.4375
2257.89,93.125
2252.63,92.8125
2247.37,92.5
2242.11,91.5625
2236.84,90.625
2231.58,89.375
2226.32,86.5625
2221.05,81.875
2215.79,73.125
2210.53,60.9375
2205.26,41.5625
2200.0,34.375
2194.74,35.0
2189.47,41.875
2184.21,61.5625
2178.95,75.3125
2173.68,81.5625
2168.42,85.0
2163.16,86.25
2157.89,85.625
2152.63,82.5
2147.37,74.6875
2142.11,68.4375
2136.84,67.5
2131.58,68.125
2126.32,75.0
2121.05,81.25
2115.79,85.0
2110.53,87.8125
2105.26,89.0625
2100.0,90.0
2094.74,90.625
2089.47,90.9375
2084.21,91.25
2078.95,91.5625
2073.68,91.875
2068.42,92.1875
2063.16,92.5
2057.89,92.8125
2052.63,92.8125
2047.37,93.125
2042.11,93.125
2036.84,93.125
2031.58,93.4375
2026.32,93.4375
2021.05,93.4375
2015.79,93.4375
2010.53,93.4375
2005.26,93.4375
2000,93.4375
1994.74,93.4375
1989.47,93.4375
1984.21,93.4375
1978.95,93.4375
1973.68,93.125
1968.42,93.125
1963.16,93.125
1957.89,93.125
1952.63,93.125
1947.37,93.125
1942.11,92.8125
1936.84,92.8125
1931.58,92.5
1926.32,91.875
1921.05,91.25
1915.79,90.625
1910.53,88.75
1905.26,85.0
1900.0,83.75
1894.74,83.125
1889.47,78.75
1884.21,69.0625
1878.95,55.3125
1873.68,47.1875
1868.42,47.1875
1863.16,47.8125
1857.89,49.0625
1852.63,50.9375
1847.37,54.6875
1842.11,56.875
1836.84,65.0
1831.58,70.0
1826.32,71.875
1821.05,76.25
1815.79,80.3125
1810.53,83.125
1805.26,85.0
1800.0,83.4375
1794.74,81.5625
1789.47,80.3125
1784.21,80.9375
1778.95,82.5
1773.68,80.625
1768.42,75.3125
1763.16,65.9375
1757.89,52.5
1752.63,39.375
1747.37,37.8125
1742.11,40.3125
1736.84,55.3125
1731.58,59.0625
1726.32,67.5
1721.05,73.4375
1715.79,76.5625
1710.53,75.625
1705.26,75.625
1700.0,78.125
1694.74,80.3125
1689.47,82.1875
1684.21,80.3125
1678.95,73.75
1673.68,72.5
1668.42,72.5
1663.16,73.75
1657.89,75.0
1652.63,76.5625
1647.37,72.5
1642.11,70.3125
1636.84,70.3125
1631.58,69.375
1626.32,69.375
1621.05,75.0
1615.79,58.4375
1610.53,44.375
1605.26,43.75
1600.0,46.5625
1594.74,56.25
1589.47,66.25
1584.21,71.25
1578.95,71.25
1573.68,75.0
1568.42,79.375
1563.16,83.125
1557.89,85.0
1552.63,85.9375
1547.37,83.75
1542.11,80.9375
1536.84,81.25
1531.58,85.625
1526.32,87.8125
1521.05,87.8125
1515.79,87.8125
1510.53,86.25
1505.26,83.75
1500.0,83.4375
1494.74,83.75
1489.47,84.6875
1484.21,84.375
1478.95,82.5
1473.68,82.5
1468.42,84.375
1463.16,87.1875
1457.89,88.125
1452.63,87.1875
1447.37,84.0625
1442.11,81.5625
1436.84,78.75
1431.58,77.5
1426.32,79.0625
1421.05,79.375
1415.79,75.9375
1410.53,76.25
1405.26,79.375
1400.0,77.5
1394.74,77.1875
1389.47,80.0
1384.21,84.6875
1378.95,81.875
1373.68,81.25
1368.42,83.125
1363.16,78.75
1357.89,69.6875
1352.63,68.125
1347.37,68.75
1342.11,72.1875
1336.84,80.625
1331.58,80.0
1326.32,76.875
1321.05,78.125
1315.79,85.0
1310.53,87.5
1305.26,87.8125
1300.0,84.6875
1294.74,83.75
1289.47,84.375
1284.21,82.5
1278.95,70.9375
1273.68,68.125
1268.42,68.75
1263.16,72.5
1257.89,79.375
1252.63,79.375
1247.37,81.25
1242.11,67.1875
1236.84,67.5
1231.58,81.875
1226.32,85.625
1221.05,88.125
1215.79,88.4375
1210.53,80.9375
1205.26,75.9375
1200.0,82.8125
1194.74,89.0625
1189.47,89.0625
1184.21,86.5625
1178.95,86.25
1173.68,87.8125
1168.42,83.125
1163.16,75.9375
1157.89,76.5625
1152.63,84.375
1147.37,81.25
1142.11,81.5625
1136.84,82.1875
1131.58,83.125
1126.32,82.8125
1121.05,71.875
1115.79,72.1875
1110.53,80.0
1105.26,81.875
1100.0,75.3125
1094.74,75.9375
1089.47,86.25
1084.21,77.5
1078.95,76.875
1073.68,79.0625
1068.42,82.1875
1063.16,88.4375
1057.89,89.0625
1052.63,88.75
1047.37,82.8125
1042.11,65.3125
1036.84,65.9375
1031.58,82.8125
1026.32,89.375
1021.05,89.375
1015.79,86.25
1010.53,89.0625
1005.26,89.375
1000.0,89.0625
994.737,84.6875
989.474,85.0
984.211,91.5625
978.947,93.4375
973.684,93.4375
968.421,93.4375
963.158,93.75
957.895,94.0625
952.632,94.0625
947.368,93.75
942.105,92.8125
936.842,88.4375
931.579,84.0625
926.316,70.9375
921.053,71.25
915.789,85.3125
910.526,90.625
905.263,89.0625
900.0,89.375
894.737,80.625
889.474,82.1875
884.211,91.5625
878.947,92.5
873.684,92.1875
868.421,91.5625
863.158,86.5625
857.895,82.1875
852.632,83.4375
847.368,87.8125
842.105,87.1875
836.842,87.1875
831.579,88.75
826.316,91.5625
821.053,93.4375
815.789,94.375
810.526,94.375
805.263,94.6875
800.0,94.6875
794.737,94.6875
789.474,94.6875
784.211,94.6875
778.947,94.375
773.684,94.375
768.421,93.75
763.158,93.125
757.895,92.1875
752.632,91.5625
747.368,89.6875
742.105,86.5625
736.842,82.5
731.579,82.5
726.316,88.4375
721.053,90.3125
715.789,89.375
710.526,88.75
705.263,87.5
700,86.5625
694.737,85.3125
689.474,83.4375
684.211,80.0
678.947,79.0625
673.684,79.6875
668.421,79.6875
663.158,79.6875
657.895,79.6875
652.632,80.0
647.368,80.625
642.105,80.625
636.842,80.9375
631.579,80.9375
626.316,80.9375
621.053,80.9375
615.789,80.9375
610.526,80.9375
605.263,81.25
600,81.5625
594.737,82.1875
589.474,83.125
584.211,83.125
578.947,83.125
573.684,84.6875
568.421,82.5
563.158,79.6875
557.895,79.6875
552.632,83.4375
547.368,84.0625
542.105,84.375
536.842,84.6875
531.579,85.3125
526.316,84.6875
521.053,84.375
515.789,84.0625
510.526,83.75
505.263,83.75
500,83.4375
494.737,83.125
489.474,82.5
484.211,82.1875
478.947,81.875
473.684,81.875
468.421,81.25
463.158,80.9375
457.895,80.3125
452.632,80.0
447.368,79.6875
442.105,79.6875
436.842,79.375
431.579,78.4375
426.316,76.5625
421.053,75.0
415.789,72.1875
410.526,70.0
405.263,68.4375
400.0,67.8125