File: data/public/sdbs/processed/samples/2,2,2-trichloroethyl 3,3-dimethyl-7-oxo-6-phenylacetamido-4-thia-1-azabicyclo[3.2.0]heptane-2-carboxylate 4-oxide.csv
Wavenumber,Intensity
4000.0,0.0
3994.74,92.1875
3989.47,92.1875
3984.21,92.1875
3978.95,92.1875
3973.68,92.1875
3968.42,92.1875
3963.16,92.1875
3957.89,92.1875
3952.63,92.1875
3947.37,92.1875
3942.11,91.875
3936.84,91.875
3931.58,91.875
3926.32,91.875
3921.05,91.875
3915.79,91.875
3910.53,91.875
3905.26,91.875
3900.0,91.5625
3894.74,91.5625
3889.47,91.5625
3884.21,91.5625
3878.95,91.5625
3873.68,91.25
3868.42,91.25
3863.16,91.25
3857.89,91.25
3852.63,91.25
3847.37,91.25
3842.11,91.25
3836.84,91.25
3831.58,91.25
3826.32,91.25
3821.05,91.25
3815.79,91.25
3810.53,91.5625
3805.26,91.5625
3800.0,91.5625
3794.74,91.5625
3789.47,91.5625
3784.21,91.25
3778.95,91.25
3773.68,90.9375
3768.42,90.9375
3763.16,90.9375
3757.89,90.9375
3752.63,90.625
3747.37,90.625
3742.11,90.625
3736.84,90.3125
3731.58,90.3125
3726.32,90.3125
3721.05,90.3125
3715.79,90.0
3710.53,89.6875
3705.26,89.6875
3700.0,89.6875
3694.74,89.6875
3689.47,89.375
3684.21,89.375
3678.95,89.375
3673.68,89.6875
3668.42,89.375
3663.16,89.375
3657.89,89.375
3652.63,89.375
3647.37,89.6875
3642.11,89.6875
3636.84,89.6875
3631.58,89.375
3626.32,89.375
3621.05,89.0625
3615.79,89.0625
3610.53,89.0625
3605.26,88.4375
3600.0,84.0625
3594.74,70.625
3589.47,78.75
3584.21,85.0
3578.95,81.25
3573.68,77.5
3568.42,81.25
3563.16,84.6875
3557.89,85.3125
3552.63,85.9375
3547.37,86.25
3542.11,86.25
3536.84,86.25
3531.58,86.25
3526.32,86.25
3521.05,86.25
3515.79,85.9375
3510.53,85.625
3505.26,85.3125
3500.0,85.3125
3494.74,85.0
3489.47,85.0
3484.21,85.0
3478.95,85.0
3473.68,84.6875
3468.42,84.6875
3463.16,84.6875
3457.89,84.6875
3452.63,84.6875
3447.37,84.6875
3442.11,84.6875
3436.84,84.6875
3431.58,84.6875
3426.32,85.0
3421.05,85.0
3415.79,85.0
3410.53,85.625
3405.26,85.9375
3400.0,86.25
3394.74,86.875
3389.47,87.1875
3384.21,87.1875
3378.95,87.5
3373.68,87.5
3368.42,87.1875
3363.16,87.1875
3357.89,86.5625
3352.63,84.375
3347.37,84.375
3342.11,85.9375
3336.84,84.6875
3331.58,83.75
3326.32,81.5625
3321.05,80.9375
3315.79,79.6875
3310.53,76.25
3305.26,70.0
3300.0,65.9375
3294.74,55.3125
3289.47,41.5625
3284.21,24.0625
3278.95,14.375
3273.68,13.125
3268.42,14.375
3263.16,9.375
3257.89,5.3125
3252.63,4.6875
3247.37,5.3125
3242.11,10.0
3236.84,15.625
3231.58,20.9375
3226.32,26.25
3221.05,28.75
3215.79,24.375
3210.53,19.6875
3205.26,15.0
3200.0,15.3125
3194.74,30.3125
3189.47,54.0625
3184.21,67.8125
3178.95,75.9375
3173.68,79.375
3168.42,82.1875
3163.16,84.0625
3157.89,85.625
3152.63,86.875
3147.37,87.8125
3142.11,88.125
3136.84,88.4375
3131.58,88.4375
3126.32,88.4375
3121.05,87.8125
3115.79,87.8125
3110.53,87.8125
3105.26,88.125
3100.0,88.4375
3094.74,88.75
3089.47,88.4375
3084.21,88.4375
3078.95,88.4375
3073.68,88.4375
3068.42,88.4375
3063.16,88.75
3057.89,88.75
3052.63,89.0625
3047.37,89.0625
3042.11,89.375
3036.84,89.375
3031.58,89.6875
3026.32,89.6875
3021.05,90.0
3015.79,90.3125
3010.53,90.9375
3005.26,90.9375
3000.0,91.25
2994.74,91.5625
2989.47,91.5625
2984.21,91.5625
2978.95,91.5625
2973.68,91.5625
2968.42,91.875
2963.16,92.1875
2957.89,92.1875
2952.63,92.5
2947.37,92.5
2942.11,92.5
2936.84,92.5
2931.58,92.5
2926.32,92.5
2921.05,92.1875
2915.79,92.1875
2910.53,92.1875
2905.26,92.1875
2900.0,92.1875
2894.74,92.5
2889.47,92.5
2884.21,92.1875
2878.95,92.1875
2873.68,92.1875
2868.42,92.1875
2863.16,92.1875
2857.89,92.1875
2852.63,92.5
2847.37,92.5
2842.11,92.5
2836.84,92.5
2831.58,92.5
2826.32,92.5
2821.05,92.8125
2815.79,92.8125
2810.53,92.8125
2805.26,92.8125
2800.0,92.8125
2794.74,92.8125
2789.47,92.8125
2784.21,92.8125
2778.95,92.8125
2773.68,93.125
2768.42,93.125
2763.16,93.125
2757.89,93.125
2752.63,93.4375
2747.37,93.4375
2742.11,93.4375
2736.84,93.4375
2731.58,93.4375
2726.32,93.4375
2721.05,93.4375
2715.79,93.75
2710.53,93.75
2705.26,93.75
2700.0,93.75
2694.74,93.75
2689.47,93.75
2684.21,93.75
2678.95,93.75
2673.68,93.75
2668.42,94.0625
2663.16,94.0625
2657.89,94.0625
2652.63,94.0625
2647.37,94.0625
2642.11,94.0625
2636.84,94.0625
2631.58,94.0625
2626.32,94.0625
2621.05,94.0625
2615.79,94.375
2610.53,94.375
2605.26,94.375
2600.0,94.375
2594.74,94.375
2589.47,94.375
2584.21,94.375
2578.95,94.375
2573.68,94.375
2568.42,94.375
2563.16,94.375
2557.89,94.6875
2552.63,94.6875
2547.37,94.6875
2542.11,94.6875
2536.84,94.6875
2531.58,95.0
2526.32,95.0
2521.05,95.0
2515.79,94.6875
2510.53,94.6875
2505.26,94.6875
2500.0,94.6875
2494.74,94.6875
2489.47,94.6875
2484.21,94.6875
2478.95,94.6875
2473.68,94.6875
2468.42,94.6875
2463.16,94.375
2457.89,94.375
2452.63,94.375
2447.37,94.375
2442.11,94.375
2436.84,94.375
2431.58,94.375
2426.32,94.375
2421.05,94.0625
2415.79,94.0625
2410.53,94.0625
2405.26,93.75
2400.0,93.4375
2394.74,93.4375
2389.47,93.125
2384.21,92.8125
2378.95,92.1875
2373.68,91.875
2368.42,90.9375
2363.16,90.0
2357.89,89.0625
2352.63,87.5
2347.37,84.6875
2342.11,80.3125
2336.84,75.0
2331.58,65.9375
2326.32,58.125
2321.05,51.25
2315.79,50.9375
2310.53,55.0
2305.26,54.375
2300.0,55.0
2294.74,68.125
2289.47,60.0
2284.21,54.0625
2278.95,51.5625
2273.68,63.4375
2268.42,76.875
2263.16,82.5
2257.89,85.3125
2252.63,87.5
2247.37,89.0625
2242.11,90.3125
2236.84,91.25
2231.58,91.5625
2226.32,91.875
2221.05,91.875
2215.79,91.25
2210.53,90.3125
2205.26,88.4375
2200.0,81.875
2194.74,64.0625
2189.47,62.8125
2184.21,58.75
2178.95,53.75
2173.68,62.5
2168.42,78.75
2163.16,83.4375
2157.89,86.25
2152.63,88.125
2147.37,89.6875
2142.11,90.3125
2136.84,90.9375
2131.58,91.5625
2126.32,91.875
2121.05,91.875
2115.79,92.1875
2110.53,92.1875
2105.26,92.5
2100.0,92.8125
2094.74,92.8125
2089.47,93.125
2084.21,93.4375
2078.95,93.4375
2073.68,93.75
2068.42,93.75
2063.16,93.75
2057.89,94.0625
2052.63,94.0625
2047.37,94.0625
2042.11,94.0625
2036.84,93.75
2031.58,93.75
2026.32,93.75
2021.05,93.75
2015.79,93.4375
2010.53,93.4375
2005.26,93.4375
2000,93.125
1994.74,92.8125
1989.47,92.8125
1984.21,92.5
1978.95,92.1875
1973.68,91.875
1968.42,90.9375
1963.16,90.0
1957.89,88.125
1952.63,85.9375
1947.37,81.5625
1942.11,75.625
1936.84,69.0625
1931.58,66.5625
1926.32,67.5
1921.05,71.875
1915.79,69.0625
1910.53,69.375
1905.26,71.875
1900.0,78.125
1894.74,80.625
1889.47,78.4375
1884.21,72.1875
1878.95,61.25
1873.68,50.625
1868.42,48.75
1863.16,48.75
1857.89,49.375
1852.63,50.9375
1847.37,58.4375
1842.11,63.75
1836.84,68.4375
1831.58,72.1875
1826.32,76.875
1821.05,79.6875
1815.79,83.4375
1810.53,85.625
1805.26,88.4375
1800.0,90.0
1794.74,90.625
1789.47,90.9375
1784.21,90.625
1778.95,89.375
1773.68,87.5
1768.42,86.5625
1763.16,79.6875
1757.89,71.5625
1752.63,64.0625
1747.37,63.4375
1742.11,63.75
1736.84,75.9375
1731.58,77.1875
1726.32,79.375
1721.05,78.4375
1715.79,77.8125
1710.53,78.125
1705.26,77.1875
1700.0,78.125
1694.74,82.5
1689.47,84.375
1684.21,85.625
1678.95,83.4375
1673.68,83.125
1668.42,83.75
1663.16,83.125
1657.89,80.0
1652.63,77.1875
1647.37,76.25
1642.11,76.25
1636.84,77.8125
1631.58,79.6875
1626.32,82.1875
1621.05,84.0625
1615.79,84.375
1610.53,84.0625
1605.26,84.375
1600.0,86.25
1594.74,86.875
1589.47,87.5
1584.21,88.125
1578.95,88.125
1573.68,87.8125
1568.42,87.5
1563.16,87.5
1557.89,87.5
1552.63,87.5
1547.37,87.5
1542.11,87.5
1536.84,87.5
1531.58,87.5
1526.32,86.5625
1521.05,85.3125
1515.79,80.0
1510.53,70.9375
1505.26,69.0625
1500.0,70.625
1494.74,76.25
1489.47,80.3125
1484.21,79.375
1478.95,78.4375
1473.68,79.6875
1468.42,80.0
1463.16,80.3125
1457.89,84.0625
1452.63,84.375
1447.37,83.125
1442.11,79.6875
1436.84,76.25
1431.58,71.5625
1426.32,71.875
1421.05,77.1875
1415.79,80.9375
1410.53,80.0
1405.26,80.0
1400.0,83.4375
1394.74,86.5625
1389.47,88.75
1384.21,89.375
1378.95,90.625
1373.68,90.9375
1368.42,90.9375
1363.16,90.625
1357.89,90.3125
1352.63,90.0
1347.37,89.375
1342.11,88.125
1336.84,85.3125
1331.58,84.375
1326.32,84.375
1321.05,85.625
1315.79,87.1875
1310.53,88.125
1305.26,88.125
1300.0,87.5
1294.74,87.1875
1289.47,86.875
1284.21,85.3125
1278.95,80.9375
1273.68,80.3125
1268.42,80.3125
1263.16,83.125
1257.89,77.1875
1252.63,76.5625
1247.37,82.5
1242.11,87.5
1236.84,85.9375
1231.58,82.1875
1226.32,81.875
1221.05,85.625
1215.79,87.8125
1210.53,89.375
1205.26,90.625
1200.0,90.9375
1194.74,91.25
1189.47,91.5625
1184.21,91.5625
1178.95,91.5625
1173.68,91.25
1168.42,91.25
1163.16,90.9375
1157.89,90.625
1152.63,90.3125
1147.37,90.3125
1142.11,90.0
1136.84,89.375
1131.58,89.0625
1126.32,88.75
1121.05,88.125
1115.79,88.125
1110.53,88.125
1105.26,88.75
1100.0,90.3125
1094.74,91.875
1089.47,92.5
1084.21,92.8125
1078.95,92.8125
1073.68,92.8125
1068.42,91.875
1063.16,91.875
1057.89,90.625
1052.63,89.6875
1047.37,90.3125
1042.11,91.875
1036.84,92.8125
1031.58,93.4375
1026.32,93.125
1021.05,93.125
1015.79,92.5
1010.53,92.1875
1005.26,91.875
1000.0,91.875
994.737,91.25
989.474,91.25
984.211,91.5625
978.947,91.875
973.684,90.9375
968.421,87.1875
963.158,85.625
957.895,85.625
952.632,90.0
947.368,92.5
942.105,93.4375
936.842,93.4375
931.579,93.125
926.316,91.875
921.053,89.6875
915.789,80.9375
910.526,66.875
905.263,66.875
900.0,76.875
894.737,85.0
889.474,85.625
884.211,89.375
878.947,90.9375
873.684,89.375
868.421,88.125
863.158,85.0
857.895,75.9375
852.632,73.125
847.368,71.875
842.105,68.125
836.842,66.25
831.579,66.25
826.316,74.375
821.053,76.25
815.789,83.75
810.526,83.125
805.263,86.5625
800.0,90.9375
794.737,92.1875
789.474,93.125
784.211,94.0625
778.947,94.6875
773.684,94.6875
768.421,93.75
763.158,93.4375
757.895,92.8125
752.632,92.1875
747.368,92.1875
742.105,92.1875
736.842,91.875
731.579,91.875
726.316,91.875
721.053,91.875
715.789,91.875
710.526,91.875
705.263,92.1875
700,92.1875
694.737,92.8125
689.474,93.4375
684.211,93.75
678.947,94.0625
673.684,93.75
668.421,92.1875
663.158,89.375
657.895,86.5625
652.632,85.9375
647.368,85.625
642.105,85.3125
636.842,85.625
631.579,86.25
626.316,87.5
621.053,88.4375
615.789,89.0625
610.526,89.6875
605.263,90.0
600,90.0
594.737,90.0
589.474,90.0
584.211,90.0
578.947,90.0
573.684,90.3125
568.421,90.625
563.158,90.9375
557.895,91.25
552.632,91.875
547.368,91.875
542.105,91.5625
536.842,91.5625
531.579,91.5625
526.316,91.5625
521.053,91.875
515.789,92.1875
510.526,92.5
505.263,92.8125
500,93.125
494.737,93.125
489.474,92.8125
484.211,92.1875
478.947,91.25
473.684,90.0
468.421,88.75
463.158,87.5
457.895,85.625
452.632,84.375
447.368,82.8125
442.105,81.875
436.842,80.625
431.579,79.6875
426.316,79.0625
421.053,78.125
415.789,77.5
410.526,76.875
405.263,76.25
400.0,75.9375