File: data/public/sdbs/processed/samples/2,3-epoxy-1,1,4,12-tetramethylperhydro-7,8a-ethanobenz(f)azulene-4,8,10,10a,12-pentol.csv
Wavenumber,Intensity
4000.0,0.0
3994.74,87.8125
3989.47,87.8125
3984.21,87.5
3978.95,87.5
3973.68,87.1875
3968.42,86.5625
3963.16,86.5625
3957.89,86.5625
3952.63,86.25
3947.37,86.25
3942.11,85.9375
3936.84,85.625
3931.58,85.3125
3926.32,84.6875
3921.05,84.375
3915.79,84.375
3910.53,84.0625
3905.26,83.75
3900.0,83.4375
3894.74,83.125
3889.47,82.5
3884.21,82.5
3878.95,82.1875
3873.68,82.1875
3868.42,81.875
3863.16,81.875
3857.89,81.5625
3852.63,81.25
3847.37,80.625
3842.11,80.3125
3836.84,80.0
3831.58,80.0
3826.32,80.0
3821.05,80.0
3815.79,79.6875
3810.53,79.375
3805.26,79.0625
3800.0,78.75
3794.74,78.4375
3789.47,78.125
3784.21,77.8125
3778.95,77.1875
3773.68,76.25
3768.42,75.625
3763.16,74.6875
3757.89,73.75
3752.63,71.5625
3747.37,69.0625
3742.11,66.25
3736.84,63.4375
3731.58,60.9375
3726.32,57.5
3721.05,52.5
3715.79,47.1875
3710.53,30.0
3705.26,23.125
3700.0,36.25
3694.74,31.5625
3689.47,28.125
3684.21,24.0625
3678.95,20.3125
3673.68,15.9375
3668.42,11.875
3663.16,10.625
3657.89,10.3125
3652.63,8.4375
3647.37,7.1875
3642.11,6.875
3636.84,6.875
3631.58,6.875
3626.32,6.875
3621.05,5.625
3615.79,4.6875
3610.53,4.375
3605.26,4.6875
3600.0,5.3125
3594.74,6.25
3589.47,7.1875
3584.21,7.8125
3578.95,8.4375
3573.68,9.0625
3568.42,9.6875
3563.16,10.625
3557.89,11.25
3552.63,11.875
3547.37,12.8125
3542.11,13.4375
3536.84,14.375
3531.58,15.0
3526.32,15.9375
3521.05,16.5625
3515.79,16.875
3510.53,17.8125
3505.26,19.0625
3500.0,20.3125
3494.74,21.25
3489.47,22.1875
3484.21,23.125
3478.95,24.0625
3473.68,24.6875
3468.42,25.9375
3463.16,26.875
3457.89,28.125
3452.63,29.6875
3447.37,31.875
3442.11,34.0625
3436.84,36.5625
3431.58,39.0625
3426.32,42.1875
3421.05,45
3415.79,47.5
3410.53,50.0
3405.26,52.5
3400.0,55.0
3394.74,57.8125
3389.47,60.0
3384.21,62.5
3378.95,64.375
3373.68,66.875
3368.42,68.75
3363.16,70.625
3357.89,71.875
3352.63,72.5
3347.37,67.8125
3342.11,67.5
3336.84,69.6875
3331.58,69.6875
3326.32,71.25
3321.05,68.125
3315.79,53.125
3310.53,51.5625
3305.26,41.5625
3300.0,30.625
3294.74,31.25
3289.47,20.0
3284.21,17.1875
3278.95,13.125
3273.68,17.5
3268.42,17.8125
3263.16,15.3125
3257.89,16.875
3252.63,21.875
3247.37,21.5625
3242.11,22.8125
3236.84,26.25
3231.58,30.9375
3226.32,35.0
3221.05,39.375
3215.79,40.3125
3210.53,49.6875
3205.26,60.3125
3200.0,67.1875
3194.74,71.25
3189.47,73.75
3184.21,75.0
3178.95,76.5625
3173.68,77.5
3168.42,79.0625
3163.16,80.0
3157.89,80.3125
3152.63,80.9375
3147.37,81.25
3142.11,81.5625
3136.84,81.875
3131.58,81.875
3126.32,81.875
3121.05,81.875
3115.79,81.875
3110.53,81.875
3105.26,82.1875
3100.0,82.5
3094.74,83.125
3089.47,83.125
3084.21,83.4375
3078.95,83.4375
3073.68,83.4375
3068.42,83.4375
3063.16,84.0625
3057.89,84.375
3052.63,85.0
3047.37,85.625
3042.11,85.9375
3036.84,85.9375
3031.58,86.25
3026.32,86.25
3021.05,86.5625
3015.79,86.875
3010.53,86.875
3005.26,87.1875
3000.0,87.1875
2994.74,87.1875
2989.47,87.5
2984.21,87.5
2978.95,87.8125
2973.68,88.125
2968.42,87.8125
2963.16,87.8125
2957.89,87.8125
2952.63,87.8125
2947.37,88.125
2942.11,88.4375
2936.84,88.4375
2931.58,88.75
2926.32,88.75
2921.05,89.0625
2915.79,89.375
2910.53,89.375
2905.26,89.375
2900.0,89.375
2894.74,89.375
2889.47,89.375
2884.21,89.6875
2878.95,90.0
2873.68,90.0
2868.42,90.3125
2863.16,90.3125
2857.89,90.3125
2852.63,90.3125
2847.37,90.3125
2842.11,90.3125
2836.84,90.3125
2831.58,90.3125
2826.32,90.3125
2821.05,90.3125
2815.79,90.3125
2810.53,90.625
2805.26,90.9375
2800.0,90.9375
2794.74,91.25
2789.47,91.25
2784.21,91.25
2778.95,90.9375
2773.68,90.9375
2768.42,90.9375
2763.16,91.25
2757.89,91.5625
2752.63,91.5625
2747.37,91.5625
2742.11,91.5625
2736.84,91.5625
2731.58,91.5625
2726.32,91.5625
2721.05,91.5625
2715.79,91.5625
2710.53,91.5625
2705.26,91.5625
2700.0,91.5625
2694.74,91.5625
2689.47,91.5625
2684.21,91.5625
2678.95,91.25
2673.68,91.25
2668.42,91.25
2663.16,90.9375
2657.89,90.9375
2652.63,90.9375
2647.37,91.25
2642.11,91.5625
2636.84,91.875
2631.58,91.875
2626.32,91.875
2621.05,91.875
2615.79,92.1875
2610.53,92.1875
2605.26,92.5
2600.0,92.5
2594.74,92.5
2589.47,92.5
2584.21,92.5
2578.95,92.5
2573.68,92.5
2568.42,92.5
2563.16,92.5
2557.89,92.5
2552.63,92.5
2547.37,92.5
2542.11,92.5
2536.84,92.8125
2531.58,92.8125
2526.32,92.8125
2521.05,93.125
2515.79,93.125
2510.53,93.125
2505.26,93.4375
2500.0,93.4375
2494.74,93.4375
2489.47,93.4375
2484.21,93.4375
2478.95,93.75
2473.68,93.75
2468.42,93.75
2463.16,94.0625
2457.89,94.0625
2452.63,94.0625
2447.37,94.375
2442.11,94.375
2436.84,94.375
2431.58,94.375
2426.32,94.375
2421.05,94.375
2415.79,94.375
2410.53,94.375
2405.26,94.375
2400.0,94.375
2394.74,94.6875
2389.47,94.6875
2384.21,94.6875
2378.95,94.6875
2373.68,95.0
2368.42,94.6875
2363.16,94.6875
2357.89,94.6875
2352.63,94.6875
2347.37,94.375
2342.11,94.375
2336.84,94.0625
2331.58,94.0625
2326.32,94.0625
2321.05,94.0625
2315.79,94.0625
2310.53,94.0625
2305.26,94.0625
2300.0,94.0625
2294.74,94.0625
2289.47,93.75
2284.21,93.4375
2278.95,93.125
2273.68,92.8125
2268.42,92.1875
2263.16,91.5625
2257.89,90.9375
2252.63,90.3125
2247.37,89.375
2242.11,88.4375
2236.84,88.125
2231.58,87.8125
2226.32,87.8125
2221.05,87.8125
2215.79,87.8125
2210.53,88.125
2205.26,88.4375
2200.0,88.75
2194.74,89.0625
2189.47,89.0625
2184.21,89.375
2178.95,89.375
2173.68,89.0625
2168.42,88.4375
2163.16,87.8125
2157.89,87.1875
2152.63,85.9375
2147.37,84.375
2142.11,82.8125
2136.84,81.25
2131.58,80.0
2126.32,78.4375
2121.05,77.5
2115.79,76.5625
2110.53,76.5625
2105.26,76.5625
2100.0,76.5625
2094.74,76.875
2089.47,76.875
2084.21,77.8125
2078.95,78.75
2073.68,80.625
2068.42,82.5
2063.16,84.0625
2057.89,85.0
2052.63,85.9375
2047.37,87.5
2042.11,88.4375
2036.84,89.0625
2031.58,89.6875
2026.32,90.3125
2021.05,90.9375
2015.79,90.9375
2010.53,91.25
2005.26,91.25
2000,90.9375
1994.74,90.9375
1989.47,90.9375
1984.21,90.625
1978.95,90.625
1973.68,90.3125
1968.42,90.0
1963.16,89.375
1957.89,89.0625
1952.63,88.4375
1947.37,88.125
1942.11,87.1875
1936.84,86.25
1931.58,84.6875
1926.32,83.4375
1921.05,80.9375
1915.79,76.875
1910.53,65.9375
1905.26,62.8125
1900.0,62.1875
1894.74,55.3125
1889.47,45.3125
1884.21,38.125
1878.95,36.5625
1873.68,36.5625
1868.42,37.8125
1863.16,37.8125
1857.89,35.0
1852.63,33.75
1847.37,31.5625
1842.11,31.5625
1836.84,34.375
1831.58,40.3125
1826.32,40.0
1821.05,40.9375
1815.79,41.25
1810.53,35.0
1805.26,29.0625
1800.0,29.0625
1794.74,33.75
1789.47,35.9375
1784.21,35.625
1778.95,33.4375
1773.68,32.5
1768.42,32.5
1763.16,35.0
1757.89,31.25
1752.63,25.9375
1747.37,17.1875
1742.11,17.1875
1736.84,26.5625
1731.58,35.3125
1726.32,36.875
1721.05,48.125
1715.79,53.75
1710.53,51.875
1705.26,50.0
1700.0,50.0
1694.74,49.375
1689.47,45.9375
1684.21,45.3125
1678.95,42.8125
1673.68,40.0
1668.42,39.6875
1663.16,40.3125
1657.89,45
1652.63,49.6875
1647.37,50.3125
1642.11,48.4375
1636.84,47.8125
1631.58,47.8125
1626.32,47.8125
1621.05,50.625
1615.79,56.25
1610.53,55.625
1605.26,52.1875
1600.0,46.875
1594.74,45.625
1589.47,47.1875
1584.21,50.9375
1578.95,51.5625
1573.68,51.25
1568.42,50.9375
1563.16,53.75
1557.89,52.1875
1552.63,46.5625
1547.37,41.25
1542.11,41.25
1536.84,44.375
1531.58,48.125
1526.32,48.125
1521.05,52.1875
1515.79,52.8125
1510.53,50.0
1505.26,49.375
1500.0,46.5625
1494.74,42.8125
1489.47,35.625
1484.21,32.1875
1478.95,32.1875
1473.68,39.375
1468.42,48.4375
1463.16,50.625
1457.89,44.375
1452.63,40.0
1447.37,36.5625
1442.11,35.9375
1436.84,36.875
1431.58,36.5625
1426.32,30.3125
1421.05,28.125
1415.79,28.75
1410.53,34.6875
1405.26,37.5
1400.0,37.8125
1394.74,37.5
1389.47,37.8125
1384.21,37.8125
1378.95,38.4375
1373.68,41.875
1368.42,42.1875
1363.16,35.3125
1357.89,31.25
1352.63,21.5625
1347.37,11.875
1342.11,11.25
1336.84,14.6875
1331.58,27.1875
1326.32,40.9375
1321.05,41.5625
1315.79,42.1875
1310.53,39.6875
1305.26,23.125
1300.0,19.375
1294.74,19.375
1289.47,20.3125
1284.21,17.8125
1278.95,17.8125
1273.68,23.75
1268.42,32.8125
1263.16,36.875
1257.89,43.125
1252.63,47.1875
1247.37,59.6875
1242.11,64.6875
1236.84,62.8125
1231.58,52.5
1226.32,43.4375
1221.05,42.8125
1215.79,48.75
1210.53,49.375
1205.26,33.125
1200.0,33.4375
1194.74,47.5
1189.47,55.625
1184.21,61.25
1178.95,63.125
1173.68,65.0
1168.42,57.5
1163.16,57.5
1157.89,57.5
1152.63,59.375
1147.37,54.6875
1142.11,54.0625
1136.84,49.0625
1131.58,55.0
1126.32,68.4375
1121.05,67.1875
1115.79,58.125
1110.53,51.5625
1105.26,40.0
1100.0,35.625
1094.74,35.625
1089.47,26.25
1084.21,20.625
1078.95,24.375
1073.68,47.1875
1068.42,41.25
1063.16,41.25
1057.89,34.6875
1052.63,35.0
1047.37,37.8125
1042.11,51.875
1036.84,46.875
1031.58,25.3125
1026.32,25.625
1021.05,42.8125
1015.79,55.0
1010.53,61.875
1005.26,65.625
1000.0,68.75
994.737,68.75
989.474,73.4375
984.211,79.0625
978.947,83.75
973.684,78.125
968.421,76.5625
963.158,79.6875
957.895,73.4375
952.632,67.5
947.368,70.625
942.105,82.1875
936.842,85.625
931.579,87.5
926.316,86.5625
921.053,83.75
915.789,75.0
910.526,63.125
905.263,48.75
900.0,49.375
894.737,58.125
889.474,66.25
884.211,75.3125
878.947,80.625
873.684,81.875
868.421,81.25
863.158,79.375
857.895,77.1875
852.632,68.125
847.368,62.8125
842.105,62.5
836.842,65.0
831.579,71.875
826.316,70.9375
821.053,60.0
815.789,51.875
810.526,54.0625
805.263,66.25
800.0,66.875
794.737,64.6875
789.474,64.0625
784.211,65.9375
778.947,70.3125
773.684,69.0625
768.421,67.5
763.158,66.25
757.895,64.6875
752.632,62.1875
747.368,59.6875
742.105,56.875
736.842,53.4375
731.579,44.6875
726.316,42.1875
721.053,46.25
715.789,53.4375
710.526,53.75
705.263,52.8125
700,51.5625
694.737,50.3125
689.474,49.6875
684.211,49.0625
678.947,48.125
673.684,45.625
668.421,44.0625
663.158,42.1875
657.895,41.25
652.632,39.6875
647.368,38.75
642.105,38.125
636.842,37.8125
631.579,37.5
626.316,37.5
621.053,37.5
615.789,37.8125
610.526,38.125
605.263,38.75
600,39.375
594.737,41.25
589.474,43.4375
584.211,45.9375
578.947,47.8125
573.684,48.4375
568.421,48.125
563.158,47.8125
557.895,47.1875
552.632,46.5625
547.368,42.8125
542.105,37.8125
536.842,40.0
531.579,45.3125
526.316,45.9375
521.053,46.5625
515.789,46.875
510.526,47.8125
505.263,48.75
500,49.6875
494.737,51.5625
489.474,53.75
484.211,56.25
478.947,58.125
473.684,60.0
468.421,61.5625
463.158,62.5
457.895,63.125
452.632,63.125
447.368,62.1875
442.105,61.25
436.842,60.0
431.579,59.6875
426.316,59.6875
421.053,60.0
415.789,60.625
410.526,62.1875
405.263,63.75
400.0,64.6875