File: data/public/sdbs/processed/samples/2,3-epoxy-1,1,4,12-tetramethylperhydro-7,8a-ethanobenz(f)azulene-4,9,10,10a,12-pentol.csv
Wavenumber,Intensity
4000.0,0.0
3994.74,86.25
3989.47,85.9375
3984.21,85.625
3978.95,85.0
3973.68,85.0
3968.42,85.3125
3963.16,85.9375
3957.89,86.25
3952.63,86.5625
3947.37,85.9375
3942.11,85.0
3936.84,84.6875
3931.58,84.6875
3926.32,84.6875
3921.05,85.0
3915.79,85.625
3910.53,85.9375
3905.26,85.625
3900.0,85.625
3894.74,85.625
3889.47,85.9375
3884.21,85.9375
3878.95,86.25
3873.68,86.25
3868.42,86.25
3863.16,86.5625
3857.89,86.875
3852.63,87.1875
3847.37,86.875
3842.11,86.875
3836.84,86.875
3831.58,86.875
3826.32,86.875
3821.05,87.5
3815.79,87.8125
3810.53,87.8125
3805.26,87.8125
3800.0,87.8125
3794.74,86.875
3789.47,86.25
3784.21,86.25
3778.95,86.5625
3773.68,87.8125
3768.42,88.4375
3763.16,88.4375
3757.89,87.8125
3752.63,87.1875
3747.37,86.875
3742.11,86.25
3736.84,85.625
3731.58,85.0
3726.32,84.0625
3721.05,82.5
3715.79,80.3125
3710.53,77.5
3705.26,73.4375
3700.0,68.4375
3694.74,63.125
3689.47,53.75
3684.21,36.25
3678.95,18.125
3673.68,18.4375
3668.42,10.0
3663.16,9.375
3657.89,10.625
3652.63,5.625
3647.37,5.9375
3642.11,12.5
3636.84,19.375
3631.58,19.375
3626.32,16.5625
3621.05,11.875
3615.79,9.375
3610.53,9.375
3605.26,10.3125
3600.0,14.0625
3594.74,18.75
3589.47,21.5625
3584.21,24.375
3578.95,26.875
3573.68,29.375
3568.42,31.5625
3563.16,33.75
3557.89,37.8125
3552.63,41.25
3547.37,44.375
3542.11,47.5
3536.84,50.3125
3531.58,53.125
3526.32,55.3125
3521.05,57.8125
3515.79,59.0625
3510.53,60.3125
3505.26,61.5625
3500.0,62.8125
3494.74,63.75
3489.47,64.375
3484.21,65.3125
3478.95,65.9375
3473.68,66.875
3468.42,67.8125
3463.16,68.4375
3457.89,69.0625
3452.63,69.375
3447.37,69.6875
3442.11,70.0
3436.84,70.625
3431.58,70.9375
3426.32,71.5625
3421.05,72.5
3415.79,73.125
3410.53,73.75
3405.26,74.6875
3400.0,75.3125
3394.74,75.9375
3389.47,76.5625
3384.21,76.875
3378.95,77.1875
3373.68,78.75
3368.42,79.0625
3363.16,79.6875
3357.89,78.4375
3352.63,74.6875
3347.37,77.5
3342.11,80.0
3336.84,80.0
3331.58,79.0625
3326.32,76.875
3321.05,70.625
3315.79,46.875
3310.53,48.4375
3305.26,60.9375
3300.0,51.5625
3294.74,27.8125
3289.47,12.1875
3284.21,11.25
3278.95,5.3125
3273.68,4.6875
3268.42,9.6875
3263.16,8.75
3257.89,6.25
3252.63,6.5625
3247.37,8.4375
3242.11,8.75
3236.84,8.75
3231.58,18.75
3226.32,24.375
3221.05,24.0625
3215.79,22.5
3210.53,25.9375
3205.26,26.5625
3200.0,27.1875
3194.74,42.8125
3189.47,61.875
3184.21,70.9375
3178.95,75.0
3173.68,77.5
3168.42,80.3125
3163.16,81.875
3157.89,82.8125
3152.63,83.75
3147.37,84.6875
3142.11,85.0
3136.84,85.0
3131.58,85.3125
3126.32,85.0
3121.05,84.6875
3115.79,84.6875
3110.53,84.6875
3105.26,84.375
3100.0,84.375
3094.74,84.6875
3089.47,84.6875
3084.21,85.0
3078.95,85.0
3073.68,85.0
3068.42,85.0
3063.16,85.3125
3057.89,85.625
3052.63,85.9375
3047.37,85.9375
3042.11,86.25
3036.84,86.5625
3031.58,87.1875
3026.32,87.5
3021.05,87.8125
3015.79,88.125
3010.53,88.125
3005.26,88.75
3000.0,89.0625
2994.74,89.6875
2989.47,90.0
2984.21,89.6875
2978.95,89.6875
2973.68,90.0
2968.42,90.0
2963.16,89.6875
2957.89,89.6875
2952.63,89.6875
2947.37,89.6875
2942.11,89.6875
2936.84,89.6875
2931.58,89.6875
2926.32,89.6875
2921.05,89.375
2915.79,89.375
2910.53,89.6875
2905.26,89.6875
2900.0,89.6875
2894.74,89.6875
2889.47,89.6875
2884.21,90.0
2878.95,90.3125
2873.68,90.625
2868.42,90.625
2863.16,90.9375
2857.89,90.9375
2852.63,90.625
2847.37,90.625
2842.11,90.625
2836.84,90.625
2831.58,90.625
2826.32,90.625
2821.05,90.9375
2815.79,91.25
2810.53,91.5625
2805.26,91.5625
2800.0,91.5625
2794.74,91.5625
2789.47,91.5625
2784.21,91.5625
2778.95,91.5625
2773.68,91.5625
2768.42,91.5625
2763.16,91.5625
2757.89,91.875
2752.63,91.875
2747.37,91.875
2742.11,91.875
2736.84,92.1875
2731.58,92.1875
2726.32,92.1875
2721.05,92.1875
2715.79,92.1875
2710.53,92.1875
2705.26,92.1875
2700.0,92.1875
2694.74,92.1875
2689.47,92.1875
2684.21,92.1875
2678.95,92.1875
2673.68,92.1875
2668.42,92.1875
2663.16,92.1875
2657.89,92.1875
2652.63,92.1875
2647.37,92.5
2642.11,92.5
2636.84,92.5
2631.58,92.5
2626.32,92.8125
2621.05,92.8125
2615.79,92.8125
2610.53,92.8125
2605.26,92.8125
2600.0,92.8125
2594.74,92.8125
2589.47,92.8125
2584.21,92.8125
2578.95,92.8125
2573.68,92.8125
2568.42,93.125
2563.16,93.125
2557.89,93.125
2552.63,93.125
2547.37,93.125
2542.11,93.125
2536.84,93.125
2531.58,93.125
2526.32,93.125
2521.05,93.4375
2515.79,93.4375
2510.53,93.4375
2505.26,93.4375
2500.0,93.4375
2494.74,93.4375
2489.47,93.4375
2484.21,93.4375
2478.95,93.75
2473.68,93.75
2468.42,93.4375
2463.16,93.4375
2457.89,93.4375
2452.63,93.4375
2447.37,93.4375
2442.11,93.75
2436.84,93.75
2431.58,94.0625
2426.32,94.0625
2421.05,94.0625
2415.79,94.0625
2410.53,94.0625
2405.26,94.0625
2400.0,94.0625
2394.74,94.0625
2389.47,94.0625
2384.21,94.0625
2378.95,94.0625
2373.68,94.0625
2368.42,94.0625
2363.16,94.0625
2357.89,94.0625
2352.63,94.0625
2347.37,94.0625
2342.11,94.0625
2336.84,94.0625
2331.58,94.375
2326.32,94.375
2321.05,94.375
2315.79,94.375
2310.53,94.375
2305.26,94.375
2300.0,94.0625
2294.74,94.0625
2289.47,94.375
2284.21,94.375
2278.95,94.375
2273.68,94.375
2268.42,94.6875
2263.16,94.6875
2257.89,95.0
2252.63,94.6875
2247.37,94.6875
2242.11,94.6875
2236.84,94.6875
2231.58,94.6875
2226.32,94.375
2221.05,94.375
2215.79,94.375
2210.53,94.375
2205.26,94.0625
2200.0,94.0625
2194.74,94.0625
2189.47,94.0625
2184.21,94.0625
2178.95,94.0625
2173.68,93.75
2168.42,93.75
2163.16,93.75
2157.89,93.75
2152.63,93.75
2147.37,93.75
2142.11,93.75
2136.84,93.75
2131.58,93.75
2126.32,93.75
2121.05,93.75
2115.79,93.4375
2110.53,93.4375
2105.26,93.4375
2100.0,93.4375
2094.74,93.4375
2089.47,93.4375
2084.21,93.75
2078.95,93.75
2073.68,93.75
2068.42,93.4375
2063.16,93.4375
2057.89,93.4375
2052.63,93.4375
2047.37,93.4375
2042.11,93.4375
2036.84,93.4375
2031.58,93.4375
2026.32,93.4375
2021.05,93.4375
2015.79,93.4375
2010.53,93.4375
2005.26,93.4375
2000,93.4375
1994.74,93.4375
1989.47,93.4375
1984.21,93.4375
1978.95,93.125
1973.68,93.125
1968.42,92.8125
1963.16,92.8125
1957.89,92.8125
1952.63,92.8125
1947.37,92.8125
1942.11,92.8125
1936.84,92.8125
1931.58,92.5
1926.32,91.875
1921.05,90.9375
1915.79,90.0
1910.53,88.4375
1905.26,86.5625
1900.0,84.375
1894.74,79.6875
1889.47,70.0
1884.21,59.6875
1878.95,52.5
1873.68,46.875
1868.42,46.25
1863.16,41.875
1857.89,37.1875
1852.63,37.1875
1847.37,43.4375
1842.11,43.4375
1836.84,48.75
1831.58,62.5
1826.32,60.0
1821.05,63.4375
1815.79,74.375
1810.53,70.0
1805.26,68.125
1800.0,68.125
1794.74,68.125
1789.47,68.125
1784.21,66.5625
1778.95,63.75
1773.68,60.9375
1768.42,53.125
1763.16,42.8125
1757.89,32.1875
1752.63,27.8125
1747.37,19.375
1742.11,18.75
1736.84,25.3125
1731.58,30.9375
1726.32,31.25
1721.05,47.8125
1715.79,39.375
1710.53,34.375
1705.26,34.375
1700.0,39.375
1694.74,38.4375
1689.47,40.625
1684.21,45.3125
1678.95,43.75
1673.68,31.25
1668.42,28.4375
1663.16,32.1875
1657.89,47.8125
1652.63,48.75
1647.37,41.5625
1642.11,40.625
1636.84,44.0625
1631.58,48.75
1626.32,49.0625
1621.05,53.125
1615.79,60.0
1610.53,54.375
1605.26,55.3125
1600.0,51.5625
1594.74,58.125
1589.47,60.3125
1584.21,46.5625
1578.95,43.75
1573.68,53.4375
1568.42,67.1875
1563.16,60.3125
1557.89,54.375
1552.63,54.6875
1547.37,51.25
1542.11,40.3125
1536.84,37.8125
1531.58,39.0625
1526.32,49.0625
1521.05,52.5
1515.79,47.5
1510.53,46.25
1505.26,39.6875
1500.0,40.625
1494.74,51.5625
1489.47,55.3125
1484.21,38.4375
1478.95,21.875
1473.68,21.25
1468.42,32.5
1463.16,54.6875
1457.89,65.625
1452.63,69.6875
1447.37,65.625
1442.11,60.625
1436.84,52.1875
1431.58,32.1875
1426.32,29.6875
1421.05,37.1875
1415.79,50.9375
1410.53,57.1875
1405.26,43.75
1400.0,27.1875
1394.74,18.4375
1389.47,18.4375
1384.21,23.75
1378.95,24.375
1373.68,22.5
1368.42,28.4375
1363.16,44.375
1357.89,49.375
1352.63,51.25
1347.37,53.75
1342.11,52.1875
1336.84,42.1875
1331.58,42.1875
1326.32,44.6875
1321.05,28.125
1315.79,28.125
1310.53,42.1875
1305.26,60.9375
1300.0,59.375
1294.74,60.625
1289.47,52.8125
1284.21,26.5625
1278.95,25.625
1273.68,34.0625
1268.42,34.0625
1263.16,30.625
1257.89,34.6875
1252.63,27.5
1247.37,31.5625
1242.11,20.9375
1236.84,24.6875
1231.58,55.3125
1226.32,67.5
1221.05,71.25
1215.79,52.5
1210.53,31.5625
1205.26,31.5625
1200.0,42.5
1194.74,51.875
1189.47,56.875
1184.21,55.625
1178.95,66.5625
1173.68,55.0
1168.42,33.4375
1163.16,33.75
1157.89,56.875
1152.63,70.3125
1147.37,72.8125
1142.11,71.875
1136.84,56.25
1131.58,55.9375
1126.32,65.0
1121.05,59.0625
1115.79,35.3125
1110.53,32.1875
1105.26,44.375
1100.0,55.3125
1094.74,39.6875
1089.47,44.0625
1084.21,46.5625
1078.95,43.75
1073.68,60.0
1068.42,63.4375
1063.16,64.0625
1057.89,71.25
1052.63,74.0625
1047.37,71.875
1042.11,41.25
1036.84,19.6875
1031.58,26.875
1026.32,63.75
1021.05,77.5
1015.79,75.625
1010.53,57.5
1005.26,54.6875
1000.0,48.4375
994.737,64.0625
989.474,75.625
984.211,48.125
978.947,45.9375
973.684,64.375
968.421,56.5625
963.158,74.6875
957.895,74.375
952.632,60.0
947.368,63.4375
942.105,81.25
936.842,86.25
931.579,91.25
926.316,93.4375
921.053,91.875
915.789,90.0
910.526,88.4375
905.263,79.0625
900.0,46.5625
894.737,25.625
889.474,25.3125
884.211,56.875
878.947,76.875
873.684,83.125
868.421,82.8125
863.158,46.875
857.895,41.25
852.632,62.1875
847.368,84.0625
842.105,86.875
836.842,87.8125
831.579,88.75
826.316,90.625
821.053,92.1875
815.789,93.75
810.526,94.0625
805.263,94.0625
800.0,93.4375
794.737,91.875
789.474,89.6875
784.211,88.4375
778.947,86.875
773.684,84.6875
768.421,81.875
763.158,78.125
757.895,73.125
752.632,65.625
747.368,55.9375
742.105,45.625
736.842,42.8125
731.579,47.8125
726.316,60.625
721.053,69.375
715.789,77.8125
710.526,76.25
705.263,72.5
700,66.25
694.737,62.1875
689.474,59.0625
684.211,56.875
678.947,56.875
673.684,55.3125
668.421,55.3125
663.158,55.3125
657.895,55.3125
652.632,55.0
647.368,54.6875
642.105,54.6875
636.842,54.6875
631.579,55.0
626.316,55.3125
621.053,55.3125
615.789,55.9375
610.526,56.875
605.263,58.4375
600,60.0
594.737,61.875
589.474,64.375
584.211,63.75
578.947,58.75
573.684,55.0
568.421,52.5
563.158,49.375
557.895,42.8125
552.632,36.5625
547.368,36.5625
542.105,46.25
536.842,47.8125
531.579,47.5
526.316,50.0
521.053,53.125
515.789,55.9375
510.526,57.1875
505.263,58.4375
500,60.3125
494.737,61.5625
489.474,62.8125
484.211,63.125
478.947,62.8125
473.684,61.875
468.421,61.25
463.158,60.9375
457.895,60.3125
452.632,60.0
447.368,59.0625
442.105,58.125
436.842,57.1875
431.579,56.875
426.316,56.5625
421.053,56.875
415.789,57.1875
410.526,57.8125
405.263,58.75
400.0,59.0625