File: data/public/sdbs/processed/samples/2,4-dimethyltetrahydrothiophene 1,1-dioxide.csv
Wavenumber,Intensity
4000.0,0.0
3994.74,93.75
3989.47,93.75
3984.21,93.75
3978.95,93.4375
3973.68,93.4375
3968.42,93.4375
3963.16,93.4375
3957.89,93.4375
3952.63,93.4375
3947.37,93.4375
3942.11,93.4375
3936.84,93.75
3931.58,93.75
3926.32,93.75
3921.05,93.75
3915.79,93.75
3910.53,93.4375
3905.26,93.4375
3900.0,93.4375
3894.74,93.4375
3889.47,93.4375
3884.21,93.4375
3878.95,93.4375
3873.68,93.125
3868.42,93.125
3863.16,93.4375
3857.89,93.4375
3852.63,93.4375
3847.37,93.4375
3842.11,93.4375
3836.84,93.125
3831.58,93.4375
3826.32,93.4375
3821.05,93.4375
3815.79,93.125
3810.53,93.125
3805.26,93.125
3800.0,93.4375
3794.74,93.4375
3789.47,92.8125
3784.21,92.1875
3778.95,90.9375
3773.68,89.6875
3768.42,88.75
3763.16,87.1875
3757.89,85.0
3752.63,82.8125
3747.37,80.9375
3742.11,78.4375
3736.84,77.1875
3731.58,76.875
3726.32,76.875
3721.05,77.1875
3715.79,78.125
3710.53,79.375
3705.26,80.625
3700.0,81.5625
3694.74,81.5625
3689.47,80.9375
3684.21,80.625
3678.95,80.625
3673.68,80.625
3668.42,81.5625
3663.16,82.8125
3657.89,84.375
3652.63,85.3125
3647.37,86.25
3642.11,86.875
3636.84,87.5
3631.58,88.125
3626.32,88.4375
3621.05,88.75
3615.79,88.75
3610.53,89.0625
3605.26,89.375
3600.0,89.6875
3594.74,89.6875
3589.47,90.0
3584.21,90.0
3578.95,90.3125
3573.68,90.3125
3568.42,90.625
3563.16,90.625
3557.89,90.9375
3552.63,90.9375
3547.37,91.25
3542.11,91.25
3536.84,91.25
3531.58,91.25
3526.32,91.5625
3521.05,91.5625
3515.79,91.5625
3510.53,91.5625
3505.26,91.5625
3500.0,91.5625
3494.74,91.5625
3489.47,91.25
3484.21,91.25
3478.95,91.25
3473.68,90.9375
3468.42,90.9375
3463.16,90.9375
3457.89,90.9375
3452.63,90.9375
3447.37,90.9375
3442.11,90.9375
3436.84,90.9375
3431.58,90.9375
3426.32,91.25
3421.05,91.25
3415.79,91.25
3410.53,91.25
3405.26,91.25
3400.0,90.9375
3394.74,90.9375
3389.47,90.9375
3384.21,90.625
3378.95,90.625
3373.68,90.3125
3368.42,90.0
3363.16,89.6875
3357.89,89.0625
3352.63,88.75
3347.37,88.4375
3342.11,87.8125
3336.84,87.1875
3331.58,86.5625
3326.32,85.0
3321.05,82.8125
3315.79,79.375
3310.53,74.6875
3305.26,67.8125
3300.0,57.5
3294.74,44.6875
3289.47,36.5625
3284.21,32.5
3278.95,32.5
3273.68,37.1875
3268.42,42.8125
3263.16,35.0
3257.89,34.6875
3252.63,41.5625
3247.37,49.375
3242.11,54.6875
3236.84,58.75
3231.58,62.1875
3226.32,59.0625
3221.05,48.125
3215.79,48.125
3210.53,62.1875
3205.26,69.375
3200.0,74.0625
3194.74,81.5625
3189.47,85.0
3184.21,86.25
3178.95,88.4375
3173.68,89.375
3168.42,90.625
3163.16,91.25
3157.89,91.5625
3152.63,91.875
3147.37,92.1875
3142.11,92.5
3136.84,92.1875
3131.58,90.9375
3126.32,90.9375
3121.05,90.9375
3115.79,91.5625
3110.53,92.1875
3105.26,92.5
3100.0,92.8125
3094.74,93.125
3089.47,93.125
3084.21,93.125
3078.95,93.125
3073.68,93.4375
3068.42,93.125
3063.16,93.125
3057.89,93.125
3052.63,93.125
3047.37,93.125
3042.11,93.125
3036.84,93.125
3031.58,93.125
3026.32,93.125
3021.05,93.4375
3015.79,93.4375
3010.53,93.4375
3005.26,93.75
3000.0,93.75
2994.74,93.75
2989.47,93.75
2984.21,93.75
2978.95,94.0625
2973.68,93.75
2968.42,93.75
2963.16,93.75
2957.89,93.75
2952.63,93.4375
2947.37,93.4375
2942.11,93.4375
2936.84,93.125
2931.58,93.125
2926.32,92.8125
2921.05,92.5
2915.79,92.1875
2910.53,91.875
2905.26,91.5625
2900.0,91.5625
2894.74,91.5625
2889.47,91.5625
2884.21,91.875
2878.95,92.1875
2873.68,92.1875
2868.42,92.1875
2863.16,92.5
2857.89,92.5
2852.63,92.5
2847.37,92.8125
2842.11,92.8125
2836.84,92.8125
2831.58,93.125
2826.32,93.125
2821.05,93.4375
2815.79,93.4375
2810.53,93.4375
2805.26,93.125
2800.0,92.8125
2794.74,92.5
2789.47,92.1875
2784.21,92.1875
2778.95,92.1875
2773.68,92.1875
2768.42,92.5
2763.16,92.8125
2757.89,93.4375
2752.63,93.4375
2747.37,93.75
2742.11,94.0625
2736.84,94.375
2731.58,94.375
2726.32,94.375
2721.05,94.375
2715.79,94.375
2710.53,94.375
2705.26,94.375
2700.0,94.375
2694.74,94.375
2689.47,94.375
2684.21,94.375
2678.95,94.375
2673.68,94.375
2668.42,94.375
2663.16,94.375
2657.89,94.375
2652.63,94.375
2647.37,94.375
2642.11,94.6875
2636.84,94.6875
2631.58,94.6875
2626.32,94.6875
2621.05,94.375
2615.79,94.375
2610.53,94.0625
2605.26,94.0625
2600.0,94.0625
2594.74,94.0625
2589.47,94.0625
2584.21,94.375
2578.95,94.375
2573.68,94.375
2568.42,94.375
2563.16,94.375
2557.89,94.375
2552.63,94.375
2547.37,94.375
2542.11,94.375
2536.84,94.6875
2531.58,94.6875
2526.32,94.6875
2521.05,94.6875
2515.79,94.6875
2510.53,94.6875
2505.26,94.6875
2500.0,94.375
2494.74,94.375
2489.47,94.375
2484.21,94.375
2478.95,94.375
2473.68,94.375
2468.42,94.375
2463.16,94.375
2457.89,94.375
2452.63,94.375
2447.37,94.375
2442.11,94.375
2436.84,94.375
2431.58,94.375
2426.32,94.375
2421.05,94.375
2415.79,94.375
2410.53,94.375
2405.26,94.6875
2400.0,94.6875
2394.74,94.6875
2389.47,94.6875
2384.21,94.6875
2378.95,95.0
2373.68,95.0
2368.42,95.0
2363.16,95.0
2357.89,94.6875
2352.63,94.6875
2347.37,94.6875
2342.11,94.6875
2336.84,94.375
2331.58,94.375
2326.32,94.375
2321.05,94.0625
2315.79,94.0625
2310.53,94.0625
2305.26,94.0625
2300.0,94.0625
2294.74,94.0625
2289.47,94.0625
2284.21,93.75
2278.95,93.75
2273.68,93.75
2268.42,93.4375
2263.16,93.4375
2257.89,93.125
2252.63,92.8125
2247.37,92.8125
2242.11,92.5
2236.84,92.5
2231.58,92.1875
2226.32,92.1875
2221.05,92.1875
2215.79,92.1875
2210.53,92.1875
2205.26,92.1875
2200.0,92.1875
2194.74,92.1875
2189.47,92.1875
2184.21,91.875
2178.95,91.875
2173.68,91.875
2168.42,91.5625
2163.16,91.5625
2157.89,91.25
2152.63,90.9375
2147.37,90.9375
2142.11,90.3125
2136.84,89.6875
2131.58,88.75
2126.32,88.125
2121.05,87.1875
2115.79,86.875
2110.53,86.25
2105.26,86.25
2100.0,86.25
2094.74,86.875
2089.47,87.5
2084.21,88.4375
2078.95,89.0625
2073.68,89.6875
2068.42,90.3125
2063.16,90.9375
2057.89,91.5625
2052.63,92.1875
2047.37,92.8125
2042.11,93.125
2036.84,93.4375
2031.58,93.4375
2026.32,93.75
2021.05,94.0625
2015.79,94.0625
2010.53,94.375
2005.26,94.375
2000,94.375
1994.74,94.0625
1989.47,93.75
1984.21,93.125
1978.95,93.125
1973.68,93.125
1968.42,93.125
1963.16,93.125
1957.89,93.4375
1952.63,93.4375
1947.37,93.125
1942.11,92.5
1936.84,92.1875
1931.58,91.5625
1926.32,91.25
1921.05,90.9375
1915.79,90.625
1910.53,90.3125
1905.26,89.375
1900.0,88.4375
1894.74,86.875
1889.47,84.0625
1884.21,78.4375
1878.95,70.625
1873.68,55.9375
1868.42,43.125
1863.16,37.5
1857.89,35.9375
1852.63,35.9375
1847.37,41.5625
1842.11,52.8125
1836.84,63.125
1831.58,69.0625
1826.32,75.0
1821.05,78.75
1815.79,76.875
1810.53,71.875
1805.26,62.8125
1800.0,60.9375
1794.74,63.75
1789.47,72.8125
1784.21,80.0
1778.95,83.4375
1773.68,84.0625
1768.42,81.25
1763.16,75.0
1757.89,67.5
1752.63,67.1875
1747.37,69.6875
1742.11,78.4375
1736.84,82.5
1731.58,84.0625
1726.32,82.5
1721.05,80.0
1715.79,75.3125
1710.53,73.125
1705.26,72.5
1700.0,70.0
1694.74,62.1875
1689.47,54.0625
1684.21,49.0625
1678.95,47.8125
1673.68,41.5625
1668.42,29.6875
1663.16,14.0625
1657.89,6.875
1652.63,5.0
1647.37,4.6875
1642.11,5.0
1636.84,7.1875
1631.58,11.875
1626.32,18.125
1621.05,24.375
1615.79,31.5625
1610.53,38.125
1605.26,39.6875
1600.0,31.25
1594.74,20.625
1589.47,15.625
1584.21,15.0
1578.95,15.625
1573.68,25.0
1568.42,43.75
1563.16,56.875
1557.89,62.5
1552.63,56.25
1547.37,45.625
1542.11,40.9375
1536.84,40.9375
1531.58,43.75
1526.32,52.5
1521.05,61.5625
1515.79,66.5625
1510.53,72.1875
1505.26,75.625
1500.0,77.8125
1494.74,79.0625
1489.47,79.375
1484.21,79.6875
1478.95,79.6875
1473.68,78.4375
1468.42,76.25
1463.16,70.3125
1457.89,66.25
1452.63,65.9375
1447.37,68.4375
1442.11,66.5625
1436.84,61.875
1431.58,52.5
1426.32,38.125
1421.05,19.0625
1415.79,7.8125
1410.53,7.8125
1405.26,9.375
1400.0,13.75
1394.74,10.3125
1389.47,8.75
1384.21,9.0625
1378.95,15.0
1373.68,27.8125
1368.42,41.875
1363.16,46.25
1357.89,46.875
1352.63,53.125
1347.37,56.875
1342.11,55.625
1336.84,56.25
1331.58,61.5625
1326.32,67.5
1321.05,72.1875
1315.79,75.3125
1310.53,77.1875
1305.26,76.875
1300.0,76.875
1294.74,79.375
1289.47,82.8125
1284.21,84.6875
1278.95,84.6875
1273.68,82.8125
1268.42,78.125
1263.16,67.1875
1257.89,60.9375
1252.63,61.25
1247.37,72.1875
1242.11,81.875
1236.84,85.3125
1231.58,87.5
1226.32,87.1875
1221.05,86.875
1215.79,86.875
1210.53,89.375
1205.26,90.625
1200.0,91.5625
1194.74,91.875
1189.47,92.1875
1184.21,92.1875
1178.95,92.5
1173.68,92.5
1168.42,92.5
1163.16,91.875
1157.89,90.625
1152.63,88.125
1147.37,86.875
1142.11,84.6875
1136.84,78.75
1131.58,75.625
1126.32,75.625
1121.05,77.5
1115.79,82.5
1110.53,86.5625
1105.26,89.0625
1100.0,90.0
1094.74,90.0
1089.47,88.4375
1084.21,86.25
1078.95,85.0
1073.68,85.0
1068.42,86.25
1063.16,87.5
1057.89,87.5
1052.63,86.875
1047.37,85.9375
1042.11,85.0
1036.84,83.4375
1031.58,80.3125
1026.32,73.75
1021.05,72.1875
1015.79,72.1875
1010.53,75.0
1005.26,77.8125
1000.0,81.25
994.737,84.0625
989.474,85.9375
984.211,87.1875
978.947,87.8125
973.684,88.4375
968.421,88.4375
963.158,88.125
957.895,87.5
952.632,85.9375
947.368,83.75
942.105,81.25
936.842,76.5625
931.579,70.0
926.316,58.125
921.053,43.4375
915.789,30.9375
910.526,29.375
905.263,32.5
900.0,47.8125
894.737,64.6875
889.474,76.25
884.211,83.75
878.947,87.8125
873.684,89.6875
868.421,90.9375
863.158,91.875
857.895,92.8125
852.632,93.4375
847.368,94.0625
842.105,94.375
836.842,94.375
831.579,94.375
826.316,94.375
821.053,94.0625
815.789,94.0625
810.526,93.75
805.263,93.4375
800.0,93.125
794.737,92.8125
789.474,92.1875
784.211,91.5625
778.947,90.9375
773.684,90.3125
768.421,90.0
763.158,88.4375
757.895,85.3125
752.632,80.625
747.368,67.5
742.105,53.125
736.842,46.25
731.579,46.5625
726.316,57.1875
721.053,71.25
715.789,80.9375
710.526,85.625
705.263,87.1875
700,87.1875
694.737,87.1875
689.474,87.5
684.211,87.1875
678.947,87.1875
673.684,86.5625
668.421,85.9375
663.158,85.0
657.895,83.75
652.632,82.8125
647.368,81.875
642.105,80.9375
636.842,79.6875
631.579,75.0
626.316,66.875
621.053,48.75
615.789,31.5625
610.526,30.625
605.263,41.5625
600,65.625
594.737,76.875
589.474,81.875
584.211,83.4375
578.947,82.1875
573.684,78.4375
568.421,73.125
563.158,65.9375
557.895,58.4375
552.632,54.0625
547.368,52.8125
542.105,53.125
536.842,55.625
531.579,58.4375
526.316,61.875
521.053,65.625
515.789,67.1875
510.526,69.375
505.263,71.875
500,74.375
494.737,76.25
489.474,75.3125
484.211,72.8125
478.947,69.375
473.684,65.3125
468.421,63.125
463.158,62.1875
457.895,61.875
452.632,61.875
447.368,61.875
442.105,62.8125
436.842,63.75
431.579,64.375
426.316,64.375
421.053,64.0625
415.789,63.125
410.526,62.5
405.263,62.1875
400.0,61.875