File: data/public/sdbs/processed/samples/2-mercaptopyridine N-oxide.csv
Wavenumber,Intensity
4000.0,0.0
3994.74,72.8125
3989.47,72.8125
3984.21,73.125
3978.95,73.4375
3973.68,73.125
3968.42,73.125
3963.16,73.125
3957.89,73.125
3952.63,73.75
3947.37,74.6875
3942.11,74.6875
3936.84,74.0625
3931.58,72.5
3926.32,71.25
3921.05,70.9375
3915.79,70.9375
3910.53,70.9375
3905.26,71.5625
3900.0,71.5625
3894.74,71.25
3889.47,70.9375
3884.21,70.625
3878.95,70.625
3873.68,70.625
3868.42,70.625
3863.16,70.0
3857.89,69.375
3852.63,68.75
3847.37,68.4375
3842.11,68.75
3836.84,69.0625
3831.58,69.6875
3826.32,70.3125
3821.05,70.0
3815.79,69.6875
3810.53,69.375
3805.26,69.0625
3800.0,69.0625
3794.74,69.0625
3789.47,69.0625
3784.21,69.6875
3778.95,69.0625
3773.68,68.125
3768.42,67.5
3763.16,67.5
3757.89,67.5
3752.63,68.125
3747.37,67.8125
3742.11,67.8125
3736.84,67.8125
3731.58,68.125
3726.32,67.8125
3721.05,67.5
3715.79,67.5
3710.53,67.1875
3705.26,67.1875
3700.0,67.1875
3694.74,67.5
3689.47,67.1875
3684.21,66.875
3678.95,66.5625
3673.68,66.5625
3668.42,66.25
3663.16,66.25
3657.89,66.25
3652.63,66.25
3647.37,66.5625
3642.11,66.25
3636.84,65.9375
3631.58,65.9375
3626.32,65.9375
3621.05,65.9375
3615.79,65.625
3610.53,65.3125
3605.26,65.0
3600.0,64.375
3594.74,64.375
3589.47,64.0625
3584.21,64.0625
3578.95,64.0625
3573.68,64.0625
3568.42,64.0625
3563.16,64.0625
3557.89,64.0625
3552.63,64.0625
3547.37,64.0625
3542.11,64.0625
3536.84,64.0625
3531.58,64.0625
3526.32,64.0625
3521.05,64.0625
3515.79,63.75
3510.53,63.75
3505.26,63.4375
3500.0,63.4375
3494.74,63.4375
3489.47,63.125
3484.21,63.125
3478.95,63.4375
3473.68,63.4375
3468.42,63.75
3463.16,63.75
3457.89,63.75
3452.63,63.75
3447.37,63.4375
3442.11,63.125
3436.84,63.125
3431.58,62.8125
3426.32,62.5
3421.05,62.5
3415.79,62.5
3410.53,62.8125
3405.26,63.125
3400.0,63.4375
3394.74,63.75
3389.47,63.4375
3384.21,58.125
3378.95,52.1875
3373.68,51.5625
3368.42,42.1875
3363.16,41.875
3357.89,46.875
3352.63,46.875
3347.37,35.3125
3342.11,32.8125
3336.84,40.625
3331.58,45.9375
3326.32,45.625
3321.05,41.875
3315.79,42.8125
3310.53,41.875
3305.26,39.0625
3300.0,36.5625
3294.74,30.0
3289.47,22.8125
3284.21,13.75
3278.95,10.0
3273.68,9.375
3268.42,10.625
3263.16,7.1875
3257.89,4.6875
3252.63,4.6875
3247.37,5.3125
3242.11,9.0625
3236.84,14.0625
3231.58,18.4375
3226.32,23.125
3221.05,23.125
3215.79,20.0
3210.53,16.5625
3205.26,13.125
3200.0,14.375
3194.74,29.375
3189.47,50.625
3184.21,61.5625
3178.95,68.4375
3173.68,70.0
3168.42,72.1875
3163.16,72.5
3157.89,73.4375
3152.63,74.375
3147.37,74.375
3142.11,74.0625
3136.84,74.0625
3131.58,73.75
3126.32,73.125
3121.05,72.5
3115.79,72.5
3110.53,72.5
3105.26,72.5
3100.0,72.8125
3094.74,73.125
3089.47,72.8125
3084.21,72.5
3078.95,72.5
3073.68,72.5
3068.42,72.5
3063.16,72.5
3057.89,73.125
3052.63,73.4375
3047.37,73.4375
3042.11,73.75
3036.84,74.0625
3031.58,74.6875
3026.32,74.6875
3021.05,75.0
3015.79,75.0
3010.53,75.0
3005.26,75.3125
3000.0,75.625
2994.74,75.9375
2989.47,76.25
2984.21,76.25
2978.95,76.5625
2973.68,76.5625
2968.42,76.5625
2963.16,76.5625
2957.89,76.25
2952.63,75.625
2947.37,74.6875
2942.11,74.0625
2936.84,73.125
2931.58,72.8125
2926.32,72.8125
2921.05,74.375
2915.79,76.25
2910.53,76.875
2905.26,76.875
2900.0,76.875
2894.74,77.1875
2889.47,77.1875
2884.21,76.875
2878.95,76.875
2873.68,76.875
2868.42,76.875
2863.16,77.1875
2857.89,77.1875
2852.63,77.1875
2847.37,77.1875
2842.11,77.1875
2836.84,77.1875
2831.58,77.1875
2826.32,77.1875
2821.05,77.5
2815.79,78.125
2810.53,78.75
2805.26,79.375
2800.0,79.375
2794.74,79.0625
2789.47,79.0625
2784.21,79.0625
2778.95,79.375
2773.68,79.375
2768.42,79.375
2763.16,80.0
2757.89,80.625
2752.63,80.9375
2747.37,81.25
2742.11,81.25
2736.84,80.9375
2731.58,80.625
2726.32,80.625
2721.05,80.625
2715.79,81.25
2710.53,81.875
2705.26,82.1875
2700.0,82.5
2694.74,82.5
2689.47,82.1875
2684.21,81.875
2678.95,81.25
2673.68,80.9375
2668.42,80.625
2663.16,80.625
2657.89,80.625
2652.63,80.9375
2647.37,82.1875
2642.11,82.5
2636.84,83.125
2631.58,83.125
2626.32,83.4375
2621.05,83.75
2615.79,83.4375
2610.53,83.125
2605.26,82.8125
2600.0,82.5
2594.74,82.1875
2589.47,81.5625
2584.21,80.9375
2578.95,80.3125
2573.68,79.6875
2568.42,79.6875
2563.16,80.3125
2557.89,81.5625
2552.63,83.4375
2547.37,84.0625
2542.11,84.375
2536.84,84.375
2531.58,83.75
2526.32,83.125
2521.05,82.8125
2515.79,82.5
2510.53,82.1875
2505.26,82.5
2500.0,82.8125
2494.74,83.4375
2489.47,84.375
2484.21,84.6875
2478.95,84.6875
2473.68,84.6875
2468.42,84.6875
2463.16,84.6875
2457.89,84.6875
2452.63,84.6875
2447.37,84.6875
2442.11,85.0
2436.84,85.0
2431.58,85.0
2426.32,85.0
2421.05,85.0
2415.79,85.0
2410.53,84.6875
2405.26,84.6875
2400.0,84.6875
2394.74,84.6875
2389.47,85.0
2384.21,85.3125
2378.95,85.9375
2373.68,86.5625
2368.42,87.1875
2363.16,87.5
2357.89,86.875
2352.63,86.25
2347.37,85.625
2342.11,84.375
2336.84,84.0625
2331.58,84.0625
2326.32,84.375
2321.05,84.6875
2315.79,85.0
2310.53,85.3125
2305.26,85.625
2300.0,86.25
2294.74,86.5625
2289.47,86.875
2284.21,86.875
2278.95,87.1875
2273.68,87.1875
2268.42,87.1875
2263.16,87.5
2257.89,87.8125
2252.63,87.5
2247.37,87.5
2242.11,86.875
2236.84,86.5625
2231.58,86.25
2226.32,86.25
2221.05,86.25
2215.79,86.5625
2210.53,86.5625
2205.26,86.875
2200.0,87.1875
2194.74,87.5
2189.47,87.8125
2184.21,88.125
2178.95,88.4375
2173.68,88.75
2168.42,88.75
2163.16,88.75
2157.89,88.4375
2152.63,88.4375
2147.37,88.75
2142.11,88.75
2136.84,88.75
2131.58,88.75
2126.32,88.75
2121.05,88.4375
2115.79,87.5
2110.53,86.5625
2105.26,85.625
2100.0,84.6875
2094.74,84.375
2089.47,84.375
2084.21,85.9375
2078.95,87.1875
2073.68,87.8125
2068.42,88.125
2063.16,88.75
2057.89,89.6875
2052.63,90.625
2047.37,84.375
2042.11,77.5
2036.84,77.8125
2031.58,82.8125
2026.32,84.0625
2021.05,79.6875
2015.79,79.6875
2010.53,85.0
2005.26,83.4375
2000,83.75
1994.74,69.6875
1989.47,62.5
1984.21,64.375
1978.95,77.1875
1973.68,80.0
1968.42,80.625
1963.16,83.75
1957.89,85.0
1952.63,84.375
1947.37,85.0
1942.11,86.875
1936.84,87.8125
1931.58,88.75
1926.32,89.6875
1921.05,90.0
1915.79,89.6875
1910.53,89.375
1905.26,88.4375
1900.0,86.5625
1894.74,82.8125
1889.47,74.375
1884.21,55.0
1878.95,22.1875
1873.68,12.5
1868.42,9.0625
1863.16,9.375
1857.89,17.1875
1852.63,25.0
1847.37,30.3125
1842.11,43.125
1836.84,50.3125
1831.58,55.3125
1826.32,57.5
1821.05,65.3125
1815.79,35.0
1810.53,12.8125
1805.26,13.4375
1800.0,20.3125
1794.74,30.3125
1789.47,43.4375
1784.21,51.25
1778.95,55.0
1773.68,58.125
1768.42,58.75
1763.16,58.75
1757.89,57.1875
1752.63,51.5625
1747.37,50.9375
1742.11,55.3125
1736.84,65.625
1731.58,67.1875
1726.32,71.875
1721.05,76.5625
1715.79,78.125
1710.53,79.375
1705.26,80.625
1700.0,81.5625
1694.74,82.1875
1689.47,83.125
1684.21,84.375
1678.95,85.625
1673.68,86.25
1668.42,86.25
1663.16,86.25
1657.89,86.25
1652.63,86.25
1647.37,86.5625
1642.11,86.5625
1636.84,87.1875
1631.58,87.5
1626.32,88.125
1621.05,87.8125
1615.79,86.25
1610.53,80.9375
1605.26,68.4375
1600.0,38.125
1594.74,37.5
1589.47,36.5625
1584.21,40.625
1578.95,32.5
1573.68,18.4375
1568.42,17.5
1563.16,25.625
1557.89,38.125
1552.63,50.0
1547.37,31.875
1542.11,20.9375
1536.84,22.1875
1531.58,34.6875
1526.32,45.625
1521.05,45.3125
1515.79,33.75
1510.53,34.375
1505.26,49.0625
1500.0,61.25
1494.74,66.875
1489.47,72.8125
1484.21,75.625
1478.95,77.1875
1473.68,78.4375
1468.42,79.0625
1463.16,80.0
1457.89,79.375
1452.63,75.625
1447.37,75.0
1442.11,72.5
1436.84,67.5
1431.58,69.375
1426.32,69.6875
1421.05,44.6875
1415.79,43.75
1410.53,50.0
1405.26,51.875
1400.0,64.6875
1394.74,67.8125
1389.47,62.8125
1384.21,62.5
1378.95,69.375
1373.68,75.0
1368.42,79.0625
1363.16,81.5625
1357.89,83.4375
1352.63,80.9375
1347.37,45.9375
1342.11,44.6875
1336.84,50.0
1331.58,55.3125
1326.32,73.125
1321.05,79.6875
1315.79,82.1875
1310.53,83.4375
1305.26,84.6875
1300.0,85.0
1294.74,84.375
1289.47,74.6875
1284.21,64.6875
1278.95,60.9375
1273.68,70.0
1268.42,78.4375
1263.16,81.875
1257.89,85.0
1252.63,87.5
1247.37,88.125
1242.11,88.125
1236.84,88.125
1231.58,88.125
1226.32,87.8125
1221.05,87.5
1215.79,87.8125
1210.53,87.5
1205.26,84.375
1200.0,85.0
1194.74,88.75
1189.47,89.375
1184.21,89.375
1178.95,89.6875
1173.68,90.0
1168.42,90.0
1163.16,90.0
1157.89,90.0
1152.63,90.3125
1147.37,90.3125
1142.11,84.0625
1136.84,83.4375
1131.58,88.4375
1126.32,90.625
1121.05,90.9375
1115.79,91.25
1110.53,91.25
1105.26,91.5625
1100.0,91.5625
1094.74,91.875
1089.47,91.875
1084.21,91.875
1078.95,91.875
1073.68,92.1875
1068.42,92.1875
1063.16,92.1875
1057.89,92.1875
1052.63,91.875
1047.37,90.625
1042.11,87.8125
1036.84,82.5
1031.58,84.375
1026.32,91.5625
1021.05,90.3125
1015.79,86.5625
1010.53,63.4375
1005.26,26.875
1000.0,28.125
994.737,44.375
989.474,67.8125
984.211,79.375
978.947,85.0
973.684,86.875
968.421,87.1875
963.158,87.8125
957.895,88.4375
952.632,89.0625
947.368,89.6875
942.105,90.0
936.842,90.3125
931.579,89.375
926.316,85.9375
921.053,80.625
915.789,66.5625
910.526,34.0625
905.263,26.25
900.0,21.875
894.737,18.4375
889.474,30.625
884.211,47.5
878.947,67.8125
873.684,75.625
868.421,80.9375
863.158,82.8125
857.895,83.75
852.632,84.375
847.368,83.125
842.105,79.375
836.842,77.8125
831.579,80.0
826.316,85.625
821.053,61.875
815.789,35.625
810.526,38.75
805.263,60.0
800.0,80.625
794.737,86.875
789.474,89.0625
784.211,90.3125
778.947,91.5625
773.684,92.5
768.421,92.8125
763.158,92.8125
757.895,92.5
752.632,92.5
747.368,92.5
742.105,92.8125
736.842,92.8125
731.579,92.8125
726.316,92.5
721.053,92.1875
715.789,91.875
710.526,91.875
705.263,91.875
700,92.1875
694.737,86.875
689.474,87.1875
684.211,92.8125
678.947,93.4375
673.684,93.75
668.421,94.6875
663.158,94.6875
657.895,93.75
652.632,90.3125
647.368,83.4375
642.105,51.25
636.842,50.3125
631.579,65.625
626.316,85.625
621.053,88.4375
615.789,90.3125
610.526,91.5625
605.263,90.9375
600,85.0
594.737,79.375
589.474,79.6875
584.211,80.3125
578.947,37.1875
573.684,36.875
568.421,68.125
563.158,82.8125
557.895,89.0625
552.632,91.875
547.368,91.875
542.105,92.1875
536.842,92.5
531.579,91.875
526.316,91.875
521.053,91.875
515.789,92.1875
510.526,92.5
505.263,92.8125
500,92.1875
494.737,90.9375
489.474,89.6875
484.211,88.125
478.947,86.875
473.684,86.25
468.421,86.25
463.158,85.9375
457.895,85.625
452.632,84.375
447.368,82.5
442.105,80.3125
436.842,77.5
431.579,75.3125
426.316,74.0625
421.053,73.75
415.789,73.75
410.526,74.375
405.263,75.0
400.0,75.625