File: data/public/sdbs/processed/samples/4,5-bis(isopropoxycarbonyl)-3-methyl-1-(1-naphthyl)-1H-1,2,3-triazolium perchlorate.csv
Wavenumber,Intensity
4000.0,0.0
3994.74,87.8125
3989.47,87.8125
3984.21,87.8125
3978.95,87.8125
3973.68,87.8125
3968.42,87.8125
3963.16,87.8125
3957.89,87.8125
3952.63,88.125
3947.37,88.125
3942.11,88.125
3936.84,87.8125
3931.58,87.5
3926.32,87.5
3921.05,87.5
3915.79,87.5
3910.53,87.5
3905.26,87.5
3900.0,87.8125
3894.74,88.125
3889.47,88.125
3884.21,88.125
3878.95,87.5
3873.68,87.5
3868.42,87.5
3863.16,87.5
3857.89,87.5
3852.63,88.125
3847.37,88.4375
3842.11,88.125
3836.84,88.125
3831.58,88.125
3826.32,88.125
3821.05,88.125
3815.79,88.125
3810.53,88.125
3805.26,88.125
3800.0,87.8125
3794.74,87.5
3789.47,87.5
3784.21,87.5
3778.95,88.125
3773.68,88.125
3768.42,87.5
3763.16,87.5
3757.89,87.1875
3752.63,87.1875
3747.37,86.875
3742.11,86.5625
3736.84,86.25
3731.58,86.25
3726.32,86.25
3721.05,86.25
3715.79,86.5625
3710.53,86.5625
3705.26,86.25
3700.0,86.25
3694.74,86.25
3689.47,86.25
3684.21,85.9375
3678.95,85.625
3673.68,85.0
3668.42,84.6875
3663.16,84.6875
3657.89,84.375
3652.63,84.0625
3647.37,83.75
3642.11,83.4375
3636.84,83.4375
3631.58,83.75
3626.32,84.0625
3621.05,84.375
3615.79,84.6875
3610.53,84.6875
3605.26,84.6875
3600.0,84.6875
3594.74,84.6875
3589.47,84.375
3584.21,84.375
3578.95,84.6875
3573.68,84.6875
3568.42,84.6875
3563.16,84.6875
3557.89,84.6875
3552.63,84.6875
3547.37,84.6875
3542.11,85.0
3536.84,85.0
3531.58,85.3125
3526.32,85.625
3521.05,85.9375
3515.79,85.625
3510.53,85.625
3505.26,85.625
3500.0,85.625
3494.74,85.625
3489.47,85.625
3484.21,85.3125
3478.95,85.3125
3473.68,85.3125
3468.42,85.0
3463.16,84.6875
3457.89,84.375
3452.63,84.375
3447.37,84.375
3442.11,84.375
3436.84,84.375
3431.58,84.375
3426.32,84.375
3421.05,84.375
3415.79,84.375
3410.53,84.0625
3405.26,83.75
3400.0,83.75
3394.74,83.75
3389.47,83.4375
3384.21,83.125
3378.95,82.8125
3373.68,82.5
3368.42,82.1875
3363.16,79.6875
3357.89,79.0625
3352.63,79.0625
3347.37,79.0625
3342.11,79.0625
3336.84,78.75
3331.58,78.125
3326.32,76.25
3321.05,74.6875
3315.79,71.25
3310.53,66.5625
3305.26,58.75
3300.0,48.125
3294.74,36.875
3289.47,27.5
3284.21,16.5625
3278.95,11.5625
3273.68,10.625
3268.42,11.25
3263.16,7.8125
3257.89,5.3125
3252.63,4.6875
3247.37,5.0
3242.11,8.125
3236.84,11.5625
3231.58,14.6875
3226.32,18.125
3221.05,20.0
3215.79,17.5
3210.53,14.375
3205.26,11.25
3200.0,11.875
3194.74,20.625
3189.47,40.0
3184.21,54.6875
3178.95,64.6875
3173.68,70.3125
3168.42,74.375
3163.16,77.1875
3157.89,79.6875
3152.63,81.5625
3147.37,83.4375
3142.11,84.375
3136.84,85.0
3131.58,84.6875
3126.32,84.0625
3121.05,83.4375
3115.79,83.4375
3110.53,83.4375
3105.26,84.0625
3100.0,84.375
3094.74,84.375
3089.47,84.375
3084.21,84.375
3078.95,84.375
3073.68,84.375
3068.42,85.0
3063.16,85.3125
3057.89,85.625
3052.63,85.9375
3047.37,86.25
3042.11,86.5625
3036.84,86.875
3031.58,87.1875
3026.32,87.1875
3021.05,87.5
3015.79,87.8125
3010.53,88.4375
3005.26,88.75
3000.0,89.0625
2994.74,89.375
2989.47,90.0
2984.21,90.3125
2978.95,90.625
2973.68,90.625
2968.42,90.9375
2963.16,91.25
2957.89,91.25
2952.63,91.25
2947.37,91.5625
2942.11,91.5625
2936.84,91.5625
2931.58,91.5625
2926.32,91.5625
2921.05,91.5625
2915.79,91.5625
2910.53,91.5625
2905.26,91.5625
2900.0,91.5625
2894.74,91.5625
2889.47,91.875
2884.21,91.875
2878.95,91.5625
2873.68,91.5625
2868.42,91.5625
2863.16,91.5625
2857.89,91.5625
2852.63,91.5625
2847.37,91.5625
2842.11,91.5625
2836.84,91.5625
2831.58,91.5625
2826.32,91.5625
2821.05,91.875
2815.79,91.875
2810.53,92.1875
2805.26,92.5
2800.0,92.5
2794.74,92.5
2789.47,92.5
2784.21,92.1875
2778.95,92.1875
2773.68,92.1875
2768.42,92.1875
2763.16,92.5
2757.89,92.8125
2752.63,93.125
2747.37,93.125
2742.11,93.125
2736.84,93.4375
2731.58,93.4375
2726.32,93.4375
2721.05,93.4375
2715.79,93.4375
2710.53,93.4375
2705.26,93.4375
2700.0,93.4375
2694.74,93.4375
2689.47,93.4375
2684.21,93.4375
2678.95,93.75
2673.68,93.75
2668.42,94.0625
2663.16,94.0625
2657.89,93.75
2652.63,93.4375
2647.37,93.125
2642.11,92.8125
2636.84,92.8125
2631.58,92.8125
2626.32,92.8125
2621.05,93.125
2615.79,93.125
2610.53,93.4375
2605.26,93.4375
2600.0,93.4375
2594.74,93.75
2589.47,93.75
2584.21,93.75
2578.95,93.75
2573.68,93.75
2568.42,93.75
2563.16,93.75
2557.89,93.75
2552.63,93.75
2547.37,93.75
2542.11,93.75
2536.84,94.0625
2531.58,94.375
2526.32,94.375
2521.05,94.375
2515.79,94.375
2510.53,94.375
2505.26,94.375
2500.0,94.375
2494.74,94.375
2489.47,94.375
2484.21,94.375
2478.95,94.375
2473.68,94.375
2468.42,94.6875
2463.16,94.6875
2457.89,94.6875
2452.63,95.0
2447.37,94.6875
2442.11,94.6875
2436.84,94.375
2431.58,94.0625
2426.32,94.0625
2421.05,93.75
2415.79,93.75
2410.53,93.4375
2405.26,93.4375
2400.0,93.4375
2394.74,93.4375
2389.47,93.75
2384.21,93.75
2378.95,94.0625
2373.68,93.75
2368.42,93.75
2363.16,93.75
2357.89,93.4375
2352.63,93.4375
2347.37,93.4375
2342.11,93.4375
2336.84,93.125
2331.58,93.125
2326.32,92.8125
2321.05,92.5
2315.79,92.1875
2310.53,91.5625
2305.26,90.3125
2300.0,87.8125
2294.74,85.0
2289.47,77.5
2284.21,63.125
2278.95,46.875
2273.68,37.8125
2268.42,32.8125
2263.16,33.125
2257.89,29.375
2252.63,29.0625
2247.37,38.125
2242.11,60.0
2236.84,71.25
2231.58,78.4375
2226.32,82.1875
2221.05,84.375
2215.79,85.9375
2210.53,86.5625
2205.26,86.875
2200.0,87.5
2194.74,88.4375
2189.47,89.0625
2184.21,89.375
2178.95,90.0
2173.68,90.3125
2168.42,90.625
2163.16,90.625
2157.89,90.625
2152.63,90.625
2147.37,90.625
2142.11,90.625
2136.84,90.625
2131.58,90.625
2126.32,90.3125
2121.05,90.3125
2115.79,90.3125
2110.53,90.3125
2105.26,90.3125
2100.0,90.3125
2094.74,90.625
2089.47,90.9375
2084.21,91.5625
2078.95,91.875
2073.68,91.875
2068.42,90.9375
2063.16,88.4375
2057.89,80.3125
2052.63,80.625
2047.37,84.375
2042.11,77.8125
2036.84,76.875
2031.58,79.6875
2026.32,86.25
2021.05,88.75
2015.79,89.6875
2010.53,90.3125
2005.26,90.3125
2000,90.3125
1994.74,90.625
1989.47,90.625
1984.21,90.625
1978.95,90.625
1973.68,90.625
1968.42,90.625
1963.16,90.625
1957.89,90.3125
1952.63,90.0
1947.37,89.6875
1942.11,87.1875
1936.84,81.5625
1931.58,81.5625
1926.32,86.875
1921.05,87.5
1915.79,86.875
1910.53,85.3125
1905.26,83.4375
1900.0,80.3125
1894.74,74.6875
1889.47,65.9375
1884.21,51.875
1878.95,36.5625
1873.68,28.75
1868.42,28.75
1863.16,30.0
1857.89,30.625
1852.63,31.875
1847.37,36.5625
1842.11,40.9375
1836.84,48.4375
1831.58,54.6875
1826.32,60.625
1821.05,66.5625
1815.79,70.3125
1810.53,74.6875
1805.26,76.875
1800.0,80.0
1794.74,76.875
1789.47,76.5625
1784.21,80.625
1778.95,80.9375
1773.68,75.0
1768.42,56.875
1763.16,53.75
1757.89,48.75
1752.63,36.5625
1747.37,34.0625
1742.11,42.1875
1736.84,58.125
1731.58,61.875
1726.32,65.3125
1721.05,70.9375
1715.79,70.9375
1710.53,72.8125
1705.26,75.0
1700.0,76.875
1694.74,77.1875
1689.47,78.125
1684.21,79.375
1678.95,79.6875
1673.68,77.5
1668.42,73.4375
1663.16,67.8125
1657.89,67.5
1652.63,69.375
1647.37,74.375
1642.11,76.875
1636.84,77.5
1631.58,75.9375
1626.32,73.75
1621.05,67.8125
1615.79,57.5
1610.53,44.0625
1605.26,35.3125
1600.0,33.75
1594.74,34.6875
1589.47,47.5
1584.21,40.625
1578.95,35.9375
1573.68,35.9375
1568.42,41.875
1563.16,54.0625
1557.89,64.6875
1552.63,71.875
1547.37,77.1875
1542.11,80.0
1536.84,80.9375
1531.58,78.125
1526.32,75.9375
1521.05,71.875
1515.79,71.25
1510.53,74.375
1505.26,80.3125
1500.0,83.125
1494.74,84.375
1489.47,81.5625
1484.21,76.5625
1478.95,75.9375
1473.68,76.5625
1468.42,76.5625
1463.16,74.375
1457.89,66.875
1452.63,59.6875
1447.37,65.625
1442.11,65.9375
1436.84,59.0625
1431.58,55.9375
1426.32,56.875
1421.05,59.6875
1415.79,67.8125
1410.53,63.4375
1405.26,53.125
1400.0,39.375
1394.74,35.0
1389.47,35.3125
1384.21,35.3125
1378.95,30.3125
1373.68,28.4375
1368.42,26.25
1363.16,20.625
1357.89,19.6875
1352.63,19.6875
1347.37,20.3125
1342.11,23.4375
1336.84,26.875
1331.58,25.9375
1326.32,25.9375
1321.05,33.125
1315.79,41.5625
1310.53,46.5625
1305.26,52.8125
1300.0,62.5
1294.74,69.6875
1289.47,73.75
1284.21,77.1875
1278.95,79.0625
1273.68,80.3125
1268.42,80.9375
1263.16,81.875
1257.89,82.5
1252.63,83.4375
1247.37,83.75
1242.11,84.375
1236.84,85.3125
1231.58,85.9375
1226.32,86.875
1221.05,87.5
1215.79,88.125
1210.53,88.4375
1205.26,86.875
1200.0,81.25
1194.74,80.9375
1189.47,84.375
1184.21,86.875
1178.95,87.8125
1173.68,88.125
1168.42,88.4375
1163.16,88.75
1157.89,88.75
1152.63,88.4375
1147.37,88.4375
1142.11,88.75
1136.84,88.125
1131.58,84.0625
1126.32,88.125
1121.05,88.125
1115.79,87.5
1110.53,86.875
1105.26,85.0
1100.0,77.8125
1094.74,75.0
1089.47,75.9375
1084.21,81.5625
1078.95,85.9375
1073.68,87.1875
1068.42,88.4375
1063.16,87.5
1057.89,78.4375
1052.63,73.4375
1047.37,75.625
1042.11,85.0
1036.84,87.1875
1031.58,84.375
1026.32,70.0
1021.05,70.0
1015.79,79.375
1010.53,86.5625
1005.26,89.0625
1000.0,90.9375
994.737,85.9375
989.474,78.4375
984.211,78.4375
978.947,86.25
973.684,84.6875
968.421,70.625
963.158,64.6875
957.895,72.5
952.632,85.625
947.368,86.875
942.105,86.25
936.842,77.5
931.579,73.75
926.316,68.125
921.053,72.1875
915.789,68.75
910.526,68.75
905.263,69.375
900.0,82.5
894.737,87.8125
889.474,89.0625
884.211,90.0
878.947,90.3125
873.684,89.6875
868.421,88.75
863.158,87.5
857.895,86.25
852.632,84.375
847.368,80.625
842.105,73.4375
836.842,71.875
831.579,74.6875
826.316,84.6875
821.053,88.4375
815.789,91.25
810.526,92.8125
805.263,93.75
800.0,94.0625
794.737,94.375
789.474,94.6875
784.211,94.375
778.947,94.0625
773.684,93.4375
768.421,92.5
763.158,91.875
757.895,91.875
752.632,91.875
747.368,80.3125
742.105,80.0
736.842,90.3125
731.579,91.5625
726.316,90.3125
721.053,88.125
715.789,84.6875
710.526,61.875
705.263,45.625
700,54.6875
694.737,80.9375
689.474,89.0625
684.211,90.9375
678.947,91.25
673.684,90.9375
668.421,90.9375
663.158,90.625
657.895,90.3125
652.632,90.0
647.368,90.0
642.105,90.3125
636.842,90.3125
631.579,90.625
626.316,91.25
621.053,91.5625
615.789,92.1875
610.526,92.1875
605.263,91.875
600,91.5625
594.737,91.5625
589.474,91.5625
584.211,91.5625
578.947,91.5625
573.684,91.875
568.421,91.875
563.158,91.5625
557.895,90.625
552.632,90.0
547.368,89.0625
542.105,88.4375
536.842,87.5
531.579,86.25
526.316,85.0
521.053,84.0625
515.789,83.125
510.526,82.8125
505.263,82.8125
500,83.4375
494.737,85.0
489.474,86.875
484.211,88.4375
478.947,89.0625
473.684,89.0625
468.421,88.4375
463.158,88.125
457.895,87.5
452.632,86.875
447.368,85.625
442.105,83.75
436.842,80.625
431.579,76.875
426.316,72.8125
421.053,69.375
415.789,65.625
410.526,62.5
405.263,60.3125
400.0,59.375