File: data/public/sdbs/processed/samples/4-ethoxycarbonyl-3-methyl-1-(1-naphthyl)-1H-1,2,3-triazolium perchlorate.csv
Wavenumber,Intensity
4000.0,0.0
3994.74,78.75
3989.47,78.4375
3984.21,77.5
3978.95,77.5
3973.68,77.5
3968.42,78.125
3963.16,78.4375
3957.89,78.4375
3952.63,78.125
3947.37,77.8125
3942.11,77.8125
3936.84,77.8125
3931.58,77.5
3926.32,77.1875
3921.05,76.875
3915.79,76.875
3910.53,76.875
3905.26,77.1875
3900.0,77.5
3894.74,77.8125
3889.47,77.8125
3884.21,77.8125
3878.95,77.5
3873.68,77.1875
3868.42,77.1875
3863.16,77.1875
3857.89,77.5
3852.63,77.5
3847.37,77.8125
3842.11,77.5
3836.84,77.1875
3831.58,77.1875
3826.32,77.1875
3821.05,77.1875
3815.79,77.1875
3810.53,77.1875
3805.26,76.875
3800.0,76.875
3794.74,77.1875
3789.47,77.1875
3784.21,77.5
3778.95,77.1875
3773.68,76.875
3768.42,76.875
3763.16,76.875
3757.89,76.875
3752.63,77.1875
3747.37,77.1875
3742.11,77.1875
3736.84,76.875
3731.58,76.875
3726.32,76.875
3721.05,76.875
3715.79,76.875
3710.53,76.875
3705.26,76.875
3700.0,76.875
3694.74,76.875
3689.47,77.1875
3684.21,76.875
3678.95,75.9375
3673.68,75.625
3668.42,75.3125
3663.16,74.6875
3657.89,74.6875
3652.63,74.6875
3647.37,74.6875
3642.11,75.0
3636.84,75.0
3631.58,75.0
3626.32,75.0
3621.05,75.0
3615.79,75.0
3610.53,75.0
3605.26,75.0
3600.0,75.0
3594.74,75.0
3589.47,75.0
3584.21,75.0
3578.95,75.0
3573.68,75.0
3568.42,75.0
3563.16,75.3125
3557.89,75.3125
3552.63,75.625
3547.37,75.625
3542.11,75.9375
3536.84,75.9375
3531.58,75.9375
3526.32,75.9375
3521.05,76.25
3515.79,76.25
3510.53,75.9375
3505.26,75.9375
3500.0,75.625
3494.74,75.625
3489.47,75.3125
3484.21,75.3125
3478.95,75.3125
3473.68,75.625
3468.42,75.625
3463.16,75.0
3457.89,74.6875
3452.63,74.375
3447.37,74.375
3442.11,74.375
3436.84,74.375
3431.58,74.375
3426.32,74.0625
3421.05,73.4375
3415.79,72.1875
3410.53,68.75
3405.26,65.3125
3400.0,64.6875
3394.74,65.0
3389.47,65.9375
3384.21,62.8125
3378.95,53.4375
3373.68,47.5
3368.42,47.1875
3363.16,52.5
3357.89,59.375
3352.63,60.9375
3347.37,63.125
3342.11,64.375
3336.84,65.0
3331.58,64.6875
3326.32,63.4375
3321.05,62.5
3315.79,60.0
3310.53,55.9375
3305.26,49.375
3300.0,42.5
3294.74,33.125
3289.47,22.8125
3284.21,13.125
3278.95,9.375
3273.68,8.4375
3268.42,8.75
3263.16,6.875
3257.89,5.3125
3252.63,4.6875
3247.37,4.6875
3242.11,5.9375
3236.84,7.5
3231.58,9.375
3226.32,11.875
3221.05,13.75
3215.79,11.5625
3210.53,10.0
3205.26,7.8125
3200.0,7.8125
3194.74,13.4375
3189.47,29.375
3184.21,43.75
3178.95,53.75
3173.68,59.0625
3168.42,63.125
3163.16,65.625
3157.89,68.125
3152.63,70.3125
3147.37,71.875
3142.11,72.5
3136.84,73.125
3131.58,73.125
3126.32,72.5
3121.05,72.1875
3115.79,72.1875
3110.53,72.5
3105.26,73.125
3100.0,73.4375
3094.74,73.4375
3089.47,73.125
3084.21,73.125
3078.95,73.125
3073.68,73.4375
3068.42,73.75
3063.16,74.375
3057.89,74.6875
3052.63,75.0
3047.37,75.3125
3042.11,75.625
3036.84,75.625
3031.58,75.625
3026.32,75.9375
3021.05,76.5625
3015.79,77.1875
3010.53,77.5
3005.26,77.8125
3000.0,77.8125
2994.74,78.125
2989.47,78.75
2984.21,79.375
2978.95,79.6875
2973.68,80.0
2968.42,80.3125
2963.16,80.3125
2957.89,80.3125
2952.63,80.625
2947.37,80.625
2942.11,80.9375
2936.84,80.9375
2931.58,80.9375
2926.32,80.9375
2921.05,80.9375
2915.79,80.9375
2910.53,80.9375
2905.26,80.9375
2900.0,80.9375
2894.74,80.9375
2889.47,80.9375
2884.21,81.25
2878.95,81.5625
2873.68,81.875
2868.42,82.1875
2863.16,82.1875
2857.89,82.1875
2852.63,82.1875
2847.37,82.1875
2842.11,82.1875
2836.84,82.1875
2831.58,82.1875
2826.32,82.1875
2821.05,82.1875
2815.79,82.1875
2810.53,82.5
2805.26,82.8125
2800.0,83.125
2794.74,82.8125
2789.47,82.8125
2784.21,82.8125
2778.95,82.8125
2773.68,82.8125
2768.42,83.125
2763.16,83.125
2757.89,83.125
2752.63,83.4375
2747.37,83.4375
2742.11,83.4375
2736.84,83.75
2731.58,83.75
2726.32,83.75
2721.05,84.0625
2715.79,84.375
2710.53,84.6875
2705.26,84.6875
2700.0,84.6875
2694.74,85.0
2689.47,85.0
2684.21,85.0
2678.95,85.3125
2673.68,85.3125
2668.42,85.3125
2663.16,85.3125
2657.89,85.625
2652.63,85.3125
2647.37,85.0
2642.11,84.375
2636.84,83.75
2631.58,83.4375
2626.32,83.4375
2621.05,83.4375
2615.79,83.75
2610.53,84.375
2605.26,84.6875
2600.0,85.0
2594.74,85.0
2589.47,85.3125
2584.21,85.625
2578.95,85.625
2573.68,85.625
2568.42,85.625
2563.16,85.625
2557.89,85.625
2552.63,85.625
2547.37,85.9375
2542.11,85.9375
2536.84,86.25
2531.58,86.5625
2526.32,86.5625
2521.05,86.875
2515.79,86.875
2510.53,87.1875
2505.26,86.875
2500.0,86.875
2494.74,86.875
2489.47,86.875
2484.21,86.875
2478.95,86.875
2473.68,86.875
2468.42,86.875
2463.16,86.875
2457.89,86.875
2452.63,86.875
2447.37,86.875
2442.11,86.875
2436.84,86.875
2431.58,86.875
2426.32,86.875
2421.05,86.875
2415.79,86.875
2410.53,86.5625
2405.26,86.25
2400.0,86.25
2394.74,85.9375
2389.47,85.9375
2384.21,86.25
2378.95,86.25
2373.68,86.25
2368.42,86.5625
2363.16,86.875
2357.89,86.875
2352.63,86.875
2347.37,86.875
2342.11,86.875
2336.84,86.875
2331.58,86.875
2326.32,86.5625
2321.05,86.25
2315.79,85.625
2310.53,84.6875
2305.26,83.4375
2300.0,80.625
2294.74,77.1875
2289.47,70.0
2284.21,54.0625
2278.95,31.25
2273.68,23.75
2268.42,23.75
2263.16,32.1875
2257.89,49.0625
2252.63,60.3125
2247.37,66.5625
2242.11,71.875
2236.84,74.6875
2231.58,76.25
2226.32,77.1875
2221.05,78.4375
2215.79,79.375
2210.53,80.3125
2205.26,81.25
2200.0,82.5
2194.74,83.75
2189.47,84.6875
2184.21,85.0
2178.95,85.3125
2173.68,85.625
2168.42,85.9375
2163.16,85.9375
2157.89,85.9375
2152.63,85.9375
2147.37,85.9375
2142.11,85.9375
2136.84,86.25
2131.58,86.25
2126.32,86.25
2121.05,86.5625
2115.79,86.5625
2110.53,86.875
2105.26,86.875
2100.0,87.1875
2094.74,87.5
2089.47,87.8125
2084.21,88.125
2078.95,88.125
2073.68,87.5
2068.42,84.0625
2063.16,83.75
2057.89,81.875
2052.63,80.9375
2047.37,84.0625
2042.11,86.25
2036.84,87.1875
2031.58,87.1875
2026.32,86.875
2021.05,86.875
2015.79,86.5625
2010.53,86.5625
2005.26,86.5625
2000,86.5625
1994.74,86.5625
1989.47,86.875
1984.21,86.875
1978.95,86.875
1973.68,86.875
1968.42,86.875
1963.16,86.5625
1957.89,86.25
1952.63,85.3125
1947.37,83.125
1942.11,73.75
1936.84,73.4375
1931.58,76.875
1926.32,81.25
1921.05,83.4375
1915.79,83.75
1910.53,82.8125
1905.26,81.25
1900.0,78.75
1894.74,73.75
1889.47,62.8125
1884.21,51.25
1878.95,39.0625
1873.68,26.875
1868.42,24.6875
1863.16,24.6875
1857.89,26.5625
1852.63,28.4375
1847.37,32.1875
1842.11,38.75
1836.84,43.75
1831.58,45.3125
1826.32,56.25
1821.05,65.9375
1815.79,71.5625
1810.53,75.0
1805.26,77.8125
1800.0,79.0625
1794.74,78.75
1789.47,77.1875
1784.21,74.6875
1778.95,64.6875
1773.68,58.125
1768.42,58.4375
1763.16,56.5625
1757.89,48.4375
1752.63,41.25
1747.37,39.6875
1742.11,40.9375
1736.84,52.1875
1731.58,56.5625
1726.32,62.1875
1721.05,69.375
1715.79,70.3125
1710.53,73.125
1705.26,73.4375
1700.0,72.5
1694.74,72.5
1689.47,73.75
1684.21,76.5625
1678.95,78.75
1673.68,78.125
1668.42,76.5625
1663.16,72.1875
1657.89,63.75
1652.63,54.6875
1647.37,45.9375
1642.11,44.6875
1636.84,47.5
1631.58,54.0625
1626.32,54.375
1621.05,57.8125
1615.79,56.5625
1610.53,45
1605.26,44.6875
1600.0,47.5
1594.74,58.125
1589.47,51.5625
1584.21,45
1578.95,44.6875
1573.68,49.375
1568.42,60.0
1563.16,70.0
1557.89,74.6875
1552.63,77.8125
1547.37,78.75
1542.11,77.8125
1536.84,75.9375
1531.58,70.625
1526.32,69.6875
1521.05,72.1875
1515.79,75.0
1510.53,76.25
1505.26,76.875
1500.0,77.5
1494.74,78.125
1489.47,78.4375
1484.21,75.9375
1478.95,70.3125
1473.68,63.125
1468.42,60.0
1463.16,59.6875
1457.89,63.125
1452.63,58.4375
1447.37,55.0
1442.11,46.5625
1436.84,44.6875
1431.58,43.75
1426.32,43.75
1421.05,50.0
1415.79,58.75
1410.53,56.5625
1405.26,58.4375
1400.0,60.3125
1394.74,52.1875
1389.47,44.6875
1384.21,45
1378.95,38.4375
1373.68,27.1875
1368.42,22.8125
1363.16,20.3125
1357.89,20.0
1352.63,20.0
1347.37,21.25
1342.11,25.0
1336.84,27.8125
1331.58,31.25
1326.32,37.5
1321.05,47.1875
1315.79,58.125
1310.53,65.3125
1305.26,70.0
1300.0,67.8125
1294.74,67.8125
1289.47,73.75
1284.21,78.125
1278.95,78.75
1273.68,79.6875
1268.42,80.0
1263.16,78.125
1257.89,73.4375
1252.63,65.625
1247.37,65.625
1242.11,67.8125
1236.84,74.0625
1231.58,80.3125
1226.32,83.125
1221.05,85.3125
1215.79,87.1875
1210.53,88.125
1205.26,88.4375
1200.0,88.75
1194.74,89.375
1189.47,90.0
1184.21,90.3125
1178.95,90.9375
1173.68,91.5625
1168.42,91.5625
1163.16,90.625
1157.89,81.5625
1152.63,82.1875
1147.37,90.625
1142.11,91.875
1136.84,91.875
1131.58,91.5625
1126.32,91.5625
1121.05,91.5625
1115.79,91.875
1110.53,92.1875
1105.26,92.5
1100.0,92.1875
1094.74,91.5625
1089.47,90.9375
1084.21,90.3125
1078.95,89.6875
1073.68,89.6875
1068.42,90.0
1063.16,90.0
1057.89,88.75
1052.63,82.1875
1047.37,79.0625
1042.11,79.375
1036.84,84.0625
1031.58,88.4375
1026.32,84.375
1021.05,84.375
1015.79,87.1875
1010.53,90.625
1005.26,92.5
1000.0,93.75
994.737,94.375
989.474,94.0625
984.211,92.8125
978.947,90.625
973.684,87.5
968.421,81.5625
963.158,78.75
957.895,55.3125
952.632,45.3125
947.368,67.5
942.105,87.8125
936.842,78.75
931.579,82.1875
926.316,55.625
921.053,51.5625
915.789,50.3125
910.526,50.3125
905.263,57.5
900.0,57.8125
894.737,81.875
889.474,89.0625
884.211,91.875
878.947,93.4375
873.684,92.5
868.421,90.9375
863.158,89.375
857.895,88.4375
852.632,86.875
847.368,83.4375
842.105,76.5625
836.842,75.625
831.579,80.0
826.316,87.8125
821.053,90.9375
815.789,92.1875
810.526,93.75
805.263,94.6875
800.0,93.125
794.737,91.25
789.474,87.8125
784.211,86.25
778.947,87.1875
773.684,93.125
768.421,94.0625
763.158,94.0625
757.895,92.5
752.632,90.0
747.368,72.1875
742.105,71.5625
736.842,87.8125
731.579,87.5
726.316,84.375
721.053,82.8125
715.789,80.0
710.526,69.0625
705.263,45.3125
700,50.625
694.737,69.6875
689.474,83.4375
684.211,85.625
678.947,87.1875
673.684,88.75
668.421,89.6875
663.158,87.8125
657.895,86.25
652.632,83.75
647.368,85.3125
642.105,85.0
636.842,85.0
631.579,85.3125
626.316,85.9375
621.053,86.25
615.789,86.875
610.526,87.1875
605.263,87.8125
600,88.125
594.737,88.4375
589.474,89.0625
584.211,89.0625
578.947,88.4375
573.684,88.125
568.421,87.1875
563.158,86.5625
557.895,85.9375
552.632,85.625
547.368,85.625
542.105,85.9375
536.842,85.625
531.579,85.3125
526.316,84.6875
521.053,84.375
515.789,84.375
510.526,84.6875
505.263,85.625
500,85.9375
494.737,86.25
489.474,85.9375
484.211,86.25
478.947,86.25
473.684,86.875
468.421,87.5
463.158,87.1875
457.895,85.9375
452.632,83.4375
447.368,80.0
442.105,76.875
436.842,73.125
431.579,70.0
426.316,68.75
421.053,68.4375
415.789,68.4375
410.526,69.0625
405.263,70.0
400.0,70.9375