File: data/public/sdbs/processed/samples/4-ethoxycarbonyl-3-methyl-1-(1-naphthyl)-1H-1,2,3-triazolium p-toluenesulfonate.csv
Wavenumber,Intensity
4000.0,0.0
3994.74,85.0
3989.47,85.0
3984.21,85.3125
3978.95,85.3125
3973.68,85.625
3968.42,85.625
3963.16,85.625
3957.89,85.625
3952.63,85.625
3947.37,85.625
3942.11,85.625
3936.84,85.625
3931.58,85.625
3926.32,85.625
3921.05,85.625
3915.79,85.625
3910.53,85.625
3905.26,85.625
3900.0,85.625
3894.74,85.625
3889.47,85.9375
3884.21,85.625
3878.95,85.625
3873.68,85.625
3868.42,85.625
3863.16,85.625
3857.89,85.625
3852.63,85.9375
3847.37,85.9375
3842.11,85.9375
3836.84,85.9375
3831.58,85.9375
3826.32,85.9375
3821.05,85.9375
3815.79,85.9375
3810.53,86.25
3805.26,86.25
3800.0,85.9375
3794.74,85.9375
3789.47,85.9375
3784.21,86.25
3778.95,85.9375
3773.68,85.9375
3768.42,85.625
3763.16,85.625
3757.89,85.625
3752.63,85.625
3747.37,85.625
3742.11,85.9375
3736.84,85.9375
3731.58,85.9375
3726.32,85.9375
3721.05,85.9375
3715.79,85.9375
3710.53,86.25
3705.26,86.25
3700.0,86.25
3694.74,86.25
3689.47,86.25
3684.21,86.5625
3678.95,86.5625
3673.68,86.25
3668.42,85.9375
3663.16,85.9375
3657.89,85.625
3652.63,85.625
3647.37,85.3125
3642.11,85.3125
3636.84,85.625
3631.58,85.625
3626.32,85.9375
3621.05,85.9375
3615.79,85.9375
3610.53,85.9375
3605.26,85.9375
3600.0,86.25
3594.74,86.25
3589.47,85.9375
3584.21,85.9375
3578.95,85.9375
3573.68,85.9375
3568.42,85.9375
3563.16,85.9375
3557.89,85.9375
3552.63,85.9375
3547.37,85.9375
3542.11,85.9375
3536.84,85.9375
3531.58,85.9375
3526.32,85.9375
3521.05,85.625
3515.79,85.9375
3510.53,85.9375
3505.26,85.9375
3500.0,85.9375
3494.74,86.25
3489.47,86.25
3484.21,86.25
3478.95,86.25
3473.68,86.25
3468.42,85.9375
3463.16,85.9375
3457.89,85.625
3452.63,85.625
3447.37,85.625
3442.11,85.625
3436.84,85.625
3431.58,85.625
3426.32,85.625
3421.05,85.3125
3415.79,84.6875
3410.53,84.0625
3405.26,82.5
3400.0,82.1875
3394.74,82.1875
3389.47,82.5
3384.21,82.1875
3378.95,80.3125
3373.68,78.75
3368.42,77.1875
3363.16,74.6875
3357.89,70.3125
3352.63,69.375
3347.37,69.6875
3342.11,70.625
3336.84,71.875
3331.58,73.125
3326.32,73.75
3321.05,69.6875
3315.79,69.6875
3310.53,70.3125
3305.26,65.9375
3300.0,60.3125
3294.74,50.9375
3289.47,38.125
3284.21,22.5
3278.95,14.375
3273.68,13.75
3268.42,14.0625
3263.16,9.0625
3257.89,5.3125
3252.63,4.6875
3247.37,5.0
3242.11,9.6875
3236.84,15.3125
3231.58,20.0
3226.32,25.9375
3221.05,28.125
3215.79,23.75
3210.53,19.375
3205.26,14.6875
3200.0,15.3125
3194.74,30.0
3189.47,54.0625
3184.21,67.8125
3178.95,75.625
3173.68,79.0625
3168.42,81.875
3163.16,83.125
3157.89,84.6875
3152.63,85.9375
3147.37,86.875
3142.11,87.5
3136.84,88.125
3131.58,88.125
3126.32,87.5
3121.05,87.5
3115.79,87.1875
3110.53,87.5
3105.26,87.5
3100.0,87.8125
3094.74,87.8125
3089.47,87.8125
3084.21,87.5
3078.95,87.5
3073.68,87.8125
3068.42,88.125
3063.16,88.4375
3057.89,88.75
3052.63,89.0625
3047.37,89.0625
3042.11,89.375
3036.84,89.375
3031.58,89.375
3026.32,89.375
3021.05,89.6875
3015.79,90.0
3010.53,90.3125
3005.26,90.625
3000.0,90.9375
2994.74,90.9375
2989.47,91.5625
2984.21,91.5625
2978.95,91.5625
2973.68,91.875
2968.42,91.875
2963.16,91.875
2957.89,91.875
2952.63,91.875
2947.37,92.1875
2942.11,92.1875
2936.84,92.1875
2931.58,92.1875
2926.32,92.5
2921.05,92.5
2915.79,92.1875
2910.53,92.1875
2905.26,92.1875
2900.0,92.1875
2894.74,92.1875
2889.47,92.1875
2884.21,92.5
2878.95,92.5
2873.68,92.5
2868.42,92.5
2863.16,92.8125
2857.89,92.8125
2852.63,92.8125
2847.37,92.8125
2842.11,92.8125
2836.84,92.8125
2831.58,92.8125
2826.32,92.8125
2821.05,93.125
2815.79,93.125
2810.53,93.125
2805.26,93.125
2800.0,93.125
2794.74,93.4375
2789.47,93.125
2784.21,93.125
2778.95,93.125
2773.68,93.125
2768.42,93.125
2763.16,93.4375
2757.89,93.4375
2752.63,93.75
2747.37,93.75
2742.11,93.75
2736.84,93.75
2731.58,93.75
2726.32,93.75
2721.05,93.75
2715.79,93.75
2710.53,94.0625
2705.26,94.0625
2700.0,94.0625
2694.74,94.0625
2689.47,94.0625
2684.21,94.375
2678.95,94.375
2673.68,94.375
2668.42,94.375
2663.16,94.0625
2657.89,94.0625
2652.63,94.0625
2647.37,94.0625
2642.11,94.0625
2636.84,94.0625
2631.58,94.0625
2626.32,94.0625
2621.05,94.0625
2615.79,94.0625
2610.53,94.0625
2605.26,94.0625
2600.0,94.0625
2594.74,94.0625
2589.47,94.0625
2584.21,94.0625
2578.95,94.0625
2573.68,94.0625
2568.42,94.0625
2563.16,94.0625
2557.89,94.0625
2552.63,94.0625
2547.37,94.0625
2542.11,94.0625
2536.84,94.0625
2531.58,94.0625
2526.32,94.0625
2521.05,94.0625
2515.79,94.0625
2510.53,94.0625
2505.26,94.0625
2500.0,94.0625
2494.74,94.0625
2489.47,94.0625
2484.21,94.0625
2478.95,94.375
2473.68,94.375
2468.42,94.375
2463.16,94.375
2457.89,94.6875
2452.63,94.6875
2447.37,94.6875
2442.11,94.6875
2436.84,94.6875
2431.58,94.6875
2426.32,94.6875
2421.05,94.375
2415.79,94.375
2410.53,94.375
2405.26,94.375
2400.0,94.375
2394.74,94.375
2389.47,94.375
2384.21,94.375
2378.95,94.375
2373.68,94.375
2368.42,94.375
2363.16,94.375
2357.89,94.375
2352.63,94.375
2347.37,94.375
2342.11,94.375
2336.84,94.375
2331.58,94.6875
2326.32,94.6875
2321.05,94.6875
2315.79,94.6875
2310.53,95.0
2305.26,94.6875
2300.0,94.6875
2294.74,94.0625
2289.47,93.125
2284.21,91.875
2278.95,88.125
2273.68,79.375
2268.42,57.5
2263.16,47.1875
2257.89,50.0
2252.63,67.1875
2247.37,76.5625
2242.11,82.8125
2236.84,86.25
2231.58,88.125
2226.32,89.0625
2221.05,90.3125
2215.79,90.9375
2210.53,91.5625
2205.26,91.5625
2200.0,91.875
2194.74,92.1875
2189.47,92.5
2184.21,92.8125
2178.95,92.8125
2173.68,93.125
2168.42,92.8125
2163.16,92.8125
2157.89,92.8125
2152.63,92.8125
2147.37,92.8125
2142.11,92.8125
2136.84,92.8125
2131.58,92.8125
2126.32,92.8125
2121.05,92.8125
2115.79,92.8125
2110.53,93.125
2105.26,93.125
2100.0,93.125
2094.74,93.4375
2089.47,93.4375
2084.21,93.75
2078.95,93.75
2073.68,93.4375
2068.42,92.8125
2063.16,90.9375
2057.89,90.0
2052.63,89.6875
2047.37,90.0
2042.11,92.5
2036.84,93.125
2031.58,93.125
2026.32,93.125
2021.05,93.125
2015.79,93.125
2010.53,93.125
2005.26,93.125
2000,93.125
1994.74,93.125
1989.47,93.125
1984.21,93.125
1978.95,93.125
1973.68,93.125
1968.42,92.8125
1963.16,92.8125
1957.89,92.5
1952.63,91.875
1947.37,90.3125
1942.11,88.125
1936.84,88.125
1931.58,89.375
1926.32,90.625
1921.05,90.625
1915.79,89.375
1910.53,87.1875
1905.26,87.1875
1900.0,87.5
1894.74,85.0
1889.47,79.6875
1884.21,67.8125
1878.95,58.75
1873.68,48.125
1868.42,46.875
1863.16,46.875
1857.89,48.4375
1852.63,50.0
1847.37,57.1875
1842.11,62.1875
1836.84,67.1875
1831.58,72.5
1826.32,77.5
1821.05,83.125
1815.79,85.9375
1810.53,87.1875
1805.26,88.125
1800.0,87.8125
1794.74,85.0
1789.47,81.5625
1784.21,81.5625
1778.95,82.5
1773.68,80.625
1768.42,79.6875
1763.16,76.5625
1757.89,68.125
1752.63,63.75
1747.37,62.8125
1742.11,65.625
1736.84,73.4375
1731.58,76.875
1726.32,80.625
1721.05,84.375
1715.79,85.9375
1710.53,86.5625
1705.26,87.1875
1700.0,87.1875
1694.74,87.1875
1689.47,87.1875
1684.21,88.125
1678.95,89.375
1673.68,89.0625
1668.42,88.125
1663.16,86.5625
1657.89,83.125
1652.63,77.1875
1647.37,71.25
1642.11,69.6875
1636.84,71.5625
1631.58,74.375
1626.32,76.5625
1621.05,80.9375
1615.79,83.75
1610.53,74.0625
1605.26,68.125
1600.0,70.3125
1594.74,80.9375
1589.47,80.0
1584.21,69.6875
1578.95,67.8125
1573.68,70.3125
1568.42,79.375
1563.16,83.75
1557.89,85.625
1552.63,84.0625
1547.37,77.8125
1542.11,70.9375
1536.84,70.0
1531.58,58.75
1526.32,39.0625
1521.05,37.8125
1515.79,40.0
1510.53,33.75
1505.26,33.125
1500.0,48.4375
1494.74,64.6875
1489.47,74.6875
1484.21,79.375
1478.95,79.375
1473.68,75.0
1468.42,75.0
1463.16,75.3125
1457.89,75.0
1452.63,71.875
1447.37,77.5
1442.11,75.0
1436.84,67.1875
1431.58,65.9375
1426.32,71.875
1421.05,78.75
1415.79,77.5
1410.53,77.5
1405.26,80.0
1400.0,77.8125
1394.74,67.5
1389.47,71.5625
1384.21,79.6875
1378.95,84.0625
1373.68,82.5
1368.42,81.875
1363.16,82.5
1357.89,86.25
1352.63,87.8125
1347.37,88.4375
1342.11,89.375
1336.84,89.6875
1331.58,90.0
1326.32,90.3125
1321.05,90.625
1315.79,90.9375
1310.53,90.9375
1305.26,91.25
1300.0,91.5625
1294.74,91.25
1289.47,90.625
1284.21,89.375
1278.95,86.875
1273.68,56.875
1268.42,56.875
1263.16,84.375
1257.89,86.5625
1252.63,84.0625
1247.37,83.125
1242.11,65.3125
1236.84,63.75
1231.58,86.875
1226.32,89.0625
1221.05,90.625
1215.79,91.875
1210.53,92.8125
1205.26,92.8125
1200.0,92.1875
1194.74,91.875
1189.47,88.4375
1184.21,91.875
1178.95,91.5625
1173.68,91.5625
1168.42,91.5625
1163.16,91.5625
1157.89,91.5625
1152.63,91.5625
1147.37,91.875
1142.11,91.875
1136.84,91.875
1131.58,91.5625
1126.32,91.5625
1121.05,91.25
1115.79,90.625
1110.53,90.3125
1105.26,90.0
1100.0,89.6875
1094.74,89.6875
1089.47,90.0
1084.21,90.3125
1078.95,90.625
1073.68,90.9375
1068.42,91.25
1063.16,91.5625
1057.89,91.5625
1052.63,91.5625
1047.37,91.25
1042.11,90.625
1036.84,90.3125
1031.58,89.375
1026.32,89.0625
1021.05,88.75
1015.79,88.75
1010.53,90.0
1005.26,92.5
1000.0,93.4375
994.737,93.75
989.474,93.125
984.211,91.25
978.947,79.6875
973.684,78.4375
968.421,85.9375
963.158,84.6875
957.895,63.125
952.632,70.9375
947.368,87.8125
942.105,81.5625
936.842,81.25
931.579,92.5
926.316,90.625
921.053,87.5
915.789,65.9375
910.526,57.8125
905.263,67.1875
900.0,73.75
894.737,85.0
889.474,89.0625
884.211,90.9375
878.947,91.875
873.684,91.875
868.421,91.5625
863.158,90.9375
857.895,90.3125
852.632,89.375
847.368,87.5
842.105,85.625
836.842,85.625
831.579,86.875
826.316,87.1875
821.053,91.5625
815.789,94.375
810.526,94.375
805.263,94.375
800.0,92.8125
794.737,89.375
789.474,78.75
784.211,55.9375
778.947,58.125
773.684,87.1875
768.421,88.4375
763.158,91.25
757.895,93.125
752.632,94.0625
747.368,89.375
742.105,82.8125
736.842,91.875
731.579,92.8125
726.316,92.8125
721.053,92.8125
715.789,92.8125
710.526,93.125
705.263,93.125
700,93.125
694.737,93.4375
689.474,93.4375
684.211,93.4375
678.947,93.125
673.684,92.8125
668.421,92.5
663.158,92.1875
657.895,91.25
652.632,90.625
647.368,89.6875
642.105,87.8125
636.842,82.5
631.579,73.4375
626.316,71.875
621.053,62.5
615.789,74.6875
610.526,86.875
605.263,85.9375
600,85.625
594.737,86.875
589.474,90.625
584.211,92.1875
578.947,92.8125
573.684,94.0625
568.421,93.75
563.158,93.4375
557.895,92.8125
552.632,92.1875
547.368,91.5625
542.105,91.5625
536.842,90.9375
531.579,90.625
526.316,90.3125
521.053,89.6875
515.789,89.0625
510.526,89.0625
505.263,89.0625
500,89.0625
494.737,89.375
489.474,89.6875
484.211,90.0
478.947,90.0
473.684,90.0
468.421,89.375
463.158,88.4375
457.895,86.5625
452.632,84.375
447.368,81.875
442.105,79.6875
436.842,77.5
431.579,75.3125
426.316,74.0625
421.053,73.125
415.789,72.5
410.526,72.5
405.263,72.5
400.0,72.1875