File: data/public/sdbs/processed/samples/4-ethoxycarbonyl-3-methyl-1-(1-naphthyl)-1H-1,2,3-triazolium bromide.csv
Wavenumber,Intensity
4000.0,0.0
3994.74,83.4375
3989.47,83.75
3984.21,83.75
3978.95,83.75
3973.68,83.75
3968.42,83.75
3963.16,84.0625
3957.89,84.375
3952.63,84.375
3947.37,84.375
3942.11,84.375
3936.84,84.375
3931.58,84.6875
3926.32,84.375
3921.05,84.375
3915.79,84.375
3910.53,84.375
3905.26,84.375
3900.0,84.375
3894.74,85.0
3889.47,85.0
3884.21,84.6875
3878.95,84.6875
3873.68,84.6875
3868.42,84.6875
3863.16,85.0
3857.89,85.0
3852.63,85.3125
3847.37,85.3125
3842.11,85.625
3836.84,85.625
3831.58,85.625
3826.32,85.625
3821.05,85.3125
3815.79,85.3125
3810.53,85.3125
3805.26,85.625
3800.0,85.625
3794.74,85.625
3789.47,85.625
3784.21,85.625
3778.95,85.9375
3773.68,85.9375
3768.42,85.9375
3763.16,85.625
3757.89,85.3125
3752.63,85.0
3747.37,85.0
3742.11,85.0
3736.84,85.0
3731.58,85.3125
3726.32,85.625
3721.05,85.625
3715.79,85.9375
3710.53,85.9375
3705.26,85.9375
3700.0,85.9375
3694.74,85.9375
3689.47,85.9375
3684.21,85.9375
3678.95,85.625
3673.68,85.625
3668.42,85.625
3663.16,85.3125
3657.89,85.0
3652.63,85.0
3647.37,85.0
3642.11,85.0
3636.84,84.6875
3631.58,84.6875
3626.32,84.375
3621.05,84.375
3615.79,84.375
3610.53,84.6875
3605.26,84.6875
3600.0,85.0
3594.74,85.0
3589.47,85.0
3584.21,84.6875
3578.95,84.6875
3573.68,84.6875
3568.42,84.6875
3563.16,84.6875
3557.89,84.6875
3552.63,84.6875
3547.37,84.6875
3542.11,84.6875
3536.84,84.6875
3531.58,85.0
3526.32,84.6875
3521.05,84.375
3515.79,84.375
3510.53,84.375
3505.26,84.375
3500.0,84.375
3494.74,84.6875
3489.47,85.0
3484.21,85.3125
3478.95,85.625
3473.68,85.625
3468.42,85.3125
3463.16,85.3125
3457.89,85.0
3452.63,85.0
3447.37,85.0
3442.11,85.3125
3436.84,85.3125
3431.58,85.625
3426.32,85.625
3421.05,85.9375
3415.79,85.9375
3410.53,85.9375
3405.26,85.9375
3400.0,85.625
3394.74,85.3125
3389.47,85.0
3384.21,85.0
3378.95,85.3125
3373.68,85.3125
3368.42,85.3125
3363.16,85.3125
3357.89,84.0625
3352.63,80.9375
3347.37,77.5
3342.11,74.375
3336.84,71.5625
3331.58,68.75
3326.32,67.1875
3321.05,67.1875
3315.79,63.125
3310.53,61.875
3305.26,57.5
3300.0,52.5
3294.74,45.9375
3289.47,35.0
3284.21,20.9375
3278.95,13.4375
3273.68,12.5
3268.42,12.8125
3263.16,8.125
3257.89,5.0
3252.63,4.6875
3247.37,5.625
3242.11,11.5625
3236.84,17.8125
3231.58,24.375
3226.32,30.3125
3221.05,34.0625
3215.79,30.625
3210.53,25.3125
3205.26,20.0
3200.0,20.9375
3194.74,38.4375
3189.47,61.5625
3184.21,72.5
3178.95,78.125
3173.68,80.0
3168.42,81.875
3163.16,83.4375
3157.89,84.375
3152.63,85.3125
3147.37,86.875
3142.11,87.8125
3136.84,87.5
3131.58,87.1875
3126.32,87.1875
3121.05,87.1875
3115.79,87.5
3110.53,87.8125
3105.26,88.125
3100.0,88.125
3094.74,88.125
3089.47,88.125
3084.21,88.4375
3078.95,88.4375
3073.68,88.4375
3068.42,88.75
3063.16,89.0625
3057.89,89.375
3052.63,89.6875
3047.37,89.6875
3042.11,89.6875
3036.84,89.6875
3031.58,89.6875
3026.32,90.0
3021.05,90.3125
3015.79,90.3125
3010.53,90.625
3005.26,90.625
3000.0,90.9375
2994.74,91.25
2989.47,91.5625
2984.21,91.875
2978.95,91.5625
2973.68,91.5625
2968.42,91.5625
2963.16,91.875
2957.89,91.875
2952.63,91.875
2947.37,91.875
2942.11,91.875
2936.84,92.1875
2931.58,92.1875
2926.32,92.1875
2921.05,92.1875
2915.79,91.875
2910.53,91.875
2905.26,91.5625
2900.0,91.5625
2894.74,91.5625
2889.47,91.875
2884.21,92.1875
2878.95,92.1875
2873.68,92.1875
2868.42,92.1875
2863.16,92.1875
2857.89,92.1875
2852.63,92.1875
2847.37,92.5
2842.11,92.5
2836.84,92.5
2831.58,92.5
2826.32,92.8125
2821.05,92.8125
2815.79,93.125
2810.53,93.4375
2805.26,93.4375
2800.0,93.4375
2794.74,93.4375
2789.47,93.4375
2784.21,93.4375
2778.95,93.4375
2773.68,93.4375
2768.42,93.75
2763.16,93.75
2757.89,94.0625
2752.63,94.375
2747.37,94.0625
2742.11,94.0625
2736.84,94.0625
2731.58,94.0625
2726.32,94.0625
2721.05,94.375
2715.79,94.375
2710.53,94.375
2705.26,94.6875
2700.0,94.375
2694.74,94.375
2689.47,94.375
2684.21,94.6875
2678.95,94.6875
2673.68,94.6875
2668.42,94.6875
2663.16,94.6875
2657.89,94.6875
2652.63,94.6875
2647.37,94.6875
2642.11,94.6875
2636.84,94.6875
2631.58,94.6875
2626.32,94.6875
2621.05,94.6875
2615.79,94.6875
2610.53,94.6875
2605.26,94.6875
2600.0,95.0
2594.74,95.0
2589.47,94.6875
2584.21,94.6875
2578.95,94.6875
2573.68,94.375
2568.42,94.0625
2563.16,94.0625
2557.89,93.75
2552.63,93.75
2547.37,93.75
2542.11,93.75
2536.84,93.75
2531.58,94.0625
2526.32,94.375
2521.05,94.6875
2515.79,94.6875
2510.53,94.6875
2505.26,94.6875
2500.0,94.6875
2494.74,94.6875
2489.47,94.6875
2484.21,94.375
2478.95,94.375
2473.68,94.375
2468.42,94.375
2463.16,94.375
2457.89,94.6875
2452.63,94.6875
2447.37,94.6875
2442.11,94.375
2436.84,94.375
2431.58,94.0625
2426.32,93.4375
2421.05,92.8125
2415.79,92.5
2410.53,92.1875
2405.26,92.1875
2400.0,92.1875
2394.74,92.5
2389.47,92.8125
2384.21,93.4375
2378.95,93.75
2373.68,93.75
2368.42,93.75
2363.16,94.0625
2357.89,94.0625
2352.63,94.0625
2347.37,94.0625
2342.11,94.0625
2336.84,94.375
2331.58,94.375
2326.32,94.375
2321.05,94.375
2315.79,94.375
2310.53,94.375
2305.26,94.375
2300.0,94.375
2294.74,94.0625
2289.47,93.125
2284.21,91.875
2278.95,88.4375
2273.68,81.875
2268.42,72.8125
2263.16,59.0625
2257.89,39.375
2252.63,35.0
2247.37,35.0
2242.11,38.125
2236.84,47.8125
2231.58,58.125
2226.32,65.3125
2221.05,70.9375
2215.79,75.625
2210.53,79.375
2205.26,81.5625
2200.0,83.75
2194.74,85.9375
2189.47,85.9375
2184.21,86.5625
2178.95,87.8125
2173.68,89.0625
2168.42,89.375
2163.16,89.6875
2157.89,89.6875
2152.63,90.0
2147.37,90.3125
2142.11,90.3125
2136.84,90.625
2131.58,90.625
2126.32,90.625
2121.05,90.3125
2115.79,90.3125
2110.53,90.3125
2105.26,90.3125
2100.0,90.625
2094.74,90.9375
2089.47,91.5625
2084.21,91.875
2078.95,92.1875
2073.68,92.1875
2068.42,91.875
2063.16,91.5625
2057.89,90.3125
2052.63,87.1875
2047.37,87.1875
2042.11,91.25
2036.84,92.1875
2031.58,92.5
2026.32,92.1875
2021.05,91.875
2015.79,91.5625
2010.53,90.3125
2005.26,90.3125
2000,90.3125
1994.74,91.25
1989.47,92.1875
1984.21,92.5
1978.95,92.5
1973.68,92.8125
1968.42,92.8125
1963.16,92.5
1957.89,92.1875
1952.63,91.5625
1947.37,89.6875
1942.11,86.875
1936.84,81.875
1931.58,81.875
1926.32,87.1875
1921.05,90.3125
1915.79,90.625
1910.53,90.625
1905.26,89.6875
1900.0,88.4375
1894.74,85.9375
1889.47,79.0625
1884.21,68.75
1878.95,60.3125
1873.68,49.6875
1868.42,48.4375
1863.16,50.9375
1857.89,54.375
1852.63,55.3125
1847.37,57.5
1842.11,59.0625
1836.84,62.5
1831.58,69.375
1826.32,74.375
1821.05,73.4375
1815.79,80.3125
1810.53,85.9375
1805.26,87.1875
1800.0,85.3125
1794.74,80.625
1789.47,73.125
1784.21,70.9375
1778.95,72.1875
1773.68,75.0
1768.42,73.75
1763.16,67.8125
1757.89,64.0625
1752.63,63.75
1747.37,61.5625
1742.11,65.625
1736.84,74.0625
1731.58,73.4375
1726.32,77.1875
1721.05,83.125
1715.79,83.4375
1710.53,81.875
1705.26,82.1875
1700.0,85.9375
1694.74,86.875
1689.47,87.8125
1684.21,88.125
1678.95,87.1875
1673.68,84.6875
1668.42,82.5
1663.16,77.8125
1657.89,71.25
1652.63,62.5
1647.37,55.625
1642.11,53.75
1636.84,51.25
1631.58,49.0625
1626.32,49.0625
1621.05,53.4375
1615.79,63.4375
1610.53,71.25
1605.26,75.0
1600.0,72.5
1594.74,72.8125
1589.47,70.0
1584.21,56.5625
1578.95,43.75
1573.68,43.4375
1568.42,53.125
1563.16,67.8125
1557.89,75.625
1552.63,80.0
1547.37,79.375
1542.11,76.25
1536.84,77.5
1531.58,84.0625
1526.32,82.5
1521.05,82.5
1515.79,86.875
1510.53,88.4375
1505.26,89.0625
1500.0,89.375
1494.74,89.0625
1489.47,86.5625
1484.21,81.25
1478.95,82.1875
1473.68,85.9375
1468.42,84.6875
1463.16,83.125
1457.89,82.8125
1452.63,81.875
1447.37,78.75
1442.11,74.6875
1436.84,67.1875
1431.58,52.5
1426.32,51.5625
1421.05,56.875
1415.79,59.0625
1410.53,70.625
1405.26,71.5625
1400.0,72.1875
1394.74,75.625
1389.47,79.375
1384.21,79.375
1378.95,80.9375
1373.68,83.125
1368.42,85.3125
1363.16,86.5625
1357.89,87.8125
1352.63,88.75
1347.37,89.0625
1342.11,87.8125
1336.84,84.375
1331.58,84.375
1326.32,87.5
1321.05,80.0
1315.79,79.375
1310.53,88.125
1305.26,90.0
1300.0,86.875
1294.74,88.125
1289.47,90.3125
1284.21,90.9375
1278.95,90.0
1273.68,89.375
1268.42,88.4375
1263.16,86.5625
1257.89,82.1875
1252.63,78.4375
1247.37,77.1875
1242.11,77.1875
1236.84,78.4375
1231.58,82.8125
1226.32,85.625
1221.05,88.4375
1215.79,90.0
1210.53,90.625
1205.26,90.9375
1200.0,90.9375
1194.74,88.75
1189.47,88.75
1184.21,90.3125
1178.95,91.875
1173.68,92.8125
1168.42,90.3125
1163.16,89.0625
1157.89,85.625
1152.63,86.5625
1147.37,91.25
1142.11,90.3125
1136.84,87.5
1131.58,85.625
1126.32,85.9375
1121.05,87.5
1115.79,89.6875
1110.53,90.0
1105.26,90.3125
1100.0,91.25
1094.74,91.875
1089.47,92.5
1084.21,92.8125
1078.95,92.8125
1073.68,93.125
1068.42,93.125
1063.16,92.8125
1057.89,92.5
1052.63,91.5625
1047.37,89.375
1042.11,86.25
1036.84,86.25
1031.58,86.25
1026.32,86.5625
1021.05,88.75
1015.79,90.3125
1010.53,91.875
1005.26,93.125
1000.0,93.4375
994.737,93.75
989.474,93.4375
984.211,91.5625
978.947,89.375
973.684,88.4375
968.421,84.375
963.158,55.0
957.895,50.625
952.632,62.8125
947.368,82.5
942.105,89.375
936.842,83.125
931.579,89.6875
926.316,89.0625
921.053,85.3125
915.789,68.125
910.526,34.0625
905.263,32.8125
900.0,60.3125
894.737,80.625
889.474,85.9375
884.211,89.6875
878.947,91.5625
873.684,87.8125
868.421,85.0
863.158,88.125
857.895,90.9375
852.632,90.3125
847.368,88.125
842.105,84.6875
836.842,84.6875
831.579,86.5625
826.316,90.625
821.053,92.1875
815.789,92.8125
810.526,93.125
805.263,93.4375
800.0,93.125
794.737,89.375
789.474,89.0625
784.211,92.1875
778.947,94.0625
773.684,94.375
768.421,94.375
763.158,93.75
757.895,93.125
752.632,91.5625
747.368,78.125
742.105,87.5
736.842,86.875
731.579,92.5
726.316,93.75
721.053,93.4375
715.789,93.4375
710.526,93.4375
705.263,93.4375
700,93.75
694.737,93.75
689.474,94.0625
684.211,94.0625
678.947,93.75
673.684,92.8125
668.421,92.1875
663.158,91.25
657.895,90.625
652.632,90.3125
647.368,90.3125
642.105,90.625
636.842,90.9375
631.579,91.25
626.316,91.875
621.053,92.8125
615.789,93.4375
610.526,94.375
605.263,94.6875
600,94.6875
594.737,94.375
589.474,94.0625
584.211,93.4375
578.947,92.8125
573.684,92.5
568.421,92.1875
563.158,92.1875
557.895,92.5
552.632,92.5
547.368,92.8125
542.105,92.1875
536.842,91.875
531.579,91.25
526.316,90.625
521.053,90.625
515.789,90.625
510.526,90.625
505.263,90.625
500,90.625
494.737,90.625
489.474,90.625
484.211,90.625
478.947,90.3125
473.684,90.0
468.421,89.375
463.158,88.75
457.895,87.8125
452.632,86.5625
447.368,85.3125
442.105,84.375
436.842,83.125
431.579,81.875
426.316,80.9375
421.053,80.0
415.789,79.375
410.526,78.75
405.263,78.4375
400.0,78.125