File: data/public/sdbs/processed/samples/5-cholesten-3beta-yl nonyl carbonate.csv
Wavenumber,Intensity
4000.0,0.0
3994.74,94.0625
3989.47,94.0625
3984.21,94.0625
3978.95,93.4375
3973.68,93.125
3968.42,93.125
3963.16,93.125
3957.89,93.125
3952.63,93.125
3947.37,93.125
3942.11,93.4375
3936.84,93.4375
3931.58,93.125
3926.32,92.8125
3921.05,92.8125
3915.79,92.8125
3910.53,92.8125
3905.26,92.5
3900.0,92.1875
3894.74,92.1875
3889.47,92.1875
3884.21,92.5
3878.95,92.1875
3873.68,92.1875
3868.42,92.1875
3863.16,91.875
3857.89,91.875
3852.63,91.875
3847.37,91.875
3842.11,91.5625
3836.84,91.5625
3831.58,91.5625
3826.32,91.5625
3821.05,91.5625
3815.79,91.5625
3810.53,91.5625
3805.26,91.5625
3800.0,91.5625
3794.74,91.5625
3789.47,91.5625
3784.21,91.5625
3778.95,91.5625
3773.68,91.5625
3768.42,91.5625
3763.16,91.5625
3757.89,91.5625
3752.63,91.5625
3747.37,91.25
3742.11,90.9375
3736.84,90.9375
3731.58,90.9375
3726.32,90.9375
3721.05,90.9375
3715.79,90.9375
3710.53,90.9375
3705.26,90.9375
3700.0,90.9375
3694.74,90.9375
3689.47,90.9375
3684.21,90.625
3678.95,90.625
3673.68,90.3125
3668.42,90.3125
3663.16,90.0
3657.89,90.0
3652.63,90.0
3647.37,90.0
3642.11,89.375
3636.84,89.0625
3631.58,88.75
3626.32,88.4375
3621.05,88.4375
3615.79,88.4375
3610.53,88.125
3605.26,88.125
3600.0,88.125
3594.74,87.8125
3589.47,87.8125
3584.21,87.5
3578.95,87.5
3573.68,87.1875
3568.42,87.1875
3563.16,87.1875
3557.89,87.1875
3552.63,86.875
3547.37,86.5625
3542.11,86.25
3536.84,86.25
3531.58,86.25
3526.32,86.25
3521.05,85.9375
3515.79,85.9375
3510.53,85.625
3505.26,85.0
3500.0,84.6875
3494.74,84.6875
3489.47,84.375
3484.21,84.375
3478.95,84.375
3473.68,84.0625
3468.42,84.0625
3463.16,84.0625
3457.89,84.0625
3452.63,84.0625
3447.37,84.0625
3442.11,84.375
3436.84,84.375
3431.58,84.6875
3426.32,85.0
3421.05,85.625
3415.79,85.9375
3410.53,86.25
3405.26,86.25
3400.0,86.5625
3394.74,87.5
3389.47,88.125
3384.21,88.4375
3378.95,89.0625
3373.68,89.375
3368.42,89.6875
3363.16,89.6875
3357.89,89.6875
3352.63,89.6875
3347.37,89.375
3342.11,88.75
3336.84,87.8125
3331.58,87.1875
3326.32,86.5625
3321.05,85.625
3315.79,83.4375
3310.53,80.625
3305.26,75.3125
3300.0,66.5625
3294.74,51.875
3289.47,35.3125
3284.21,19.6875
3278.95,12.5
3273.68,10.3125
3268.42,10.625
3263.16,7.8125
3257.89,5.0
3252.63,4.6875
3247.37,5.0
3242.11,9.0625
3236.84,12.5
3231.58,16.875
3226.32,20.625
3221.05,23.125
3215.79,18.75
3210.53,17.1875
3205.26,12.5
3200.0,12.8125
3194.74,25.3125
3189.47,47.1875
3184.21,61.5625
3178.95,71.5625
3173.68,77.5
3168.42,80.9375
3163.16,83.4375
3157.89,85.0
3152.63,86.5625
3147.37,87.8125
3142.11,88.4375
3136.84,88.75
3131.58,89.0625
3126.32,88.4375
3121.05,88.125
3115.79,88.125
3110.53,88.125
3105.26,88.75
3100.0,88.75
3094.74,89.0625
3089.47,88.75
3084.21,88.75
3078.95,88.75
3073.68,88.75
3068.42,89.0625
3063.16,89.0625
3057.89,89.375
3052.63,89.375
3047.37,89.6875
3042.11,90.0
3036.84,90.0
3031.58,90.3125
3026.32,90.3125
3021.05,90.625
3015.79,90.625
3010.53,90.9375
3005.26,91.25
3000.0,91.5625
2994.74,91.875
2989.47,92.1875
2984.21,92.1875
2978.95,92.5
2973.68,92.5
2968.42,92.8125
2963.16,92.8125
2957.89,92.8125
2952.63,92.8125
2947.37,92.8125
2942.11,92.8125
2936.84,92.8125
2931.58,92.8125
2926.32,93.125
2921.05,92.8125
2915.79,92.8125
2910.53,92.8125
2905.26,92.5
2900.0,92.5
2894.74,92.5
2889.47,92.5
2884.21,92.5
2878.95,92.1875
2873.68,92.1875
2868.42,92.1875
2863.16,92.1875
2857.89,92.1875
2852.63,92.1875
2847.37,92.1875
2842.11,92.5
2836.84,92.5
2831.58,92.5
2826.32,92.5
2821.05,92.5
2815.79,92.8125
2810.53,92.8125
2805.26,92.8125
2800.0,92.8125
2794.74,92.5
2789.47,92.5
2784.21,92.5
2778.95,92.5
2773.68,92.5
2768.42,92.5
2763.16,92.5
2757.89,92.8125
2752.63,92.8125
2747.37,92.8125
2742.11,92.8125
2736.84,92.8125
2731.58,92.8125
2726.32,92.8125
2721.05,93.125
2715.79,93.125
2710.53,93.125
2705.26,93.125
2700.0,93.125
2694.74,93.125
2689.47,93.125
2684.21,93.125
2678.95,93.125
2673.68,93.125
2668.42,93.125
2663.16,93.125
2657.89,93.125
2652.63,93.125
2647.37,93.4375
2642.11,93.125
2636.84,93.125
2631.58,93.125
2626.32,93.125
2621.05,93.125
2615.79,93.125
2610.53,93.4375
2605.26,93.4375
2600.0,93.4375
2594.74,93.4375
2589.47,93.4375
2584.21,93.4375
2578.95,93.4375
2573.68,93.4375
2568.42,93.4375
2563.16,93.75
2557.89,93.75
2552.63,93.75
2547.37,93.75
2542.11,94.0625
2536.84,94.0625
2531.58,94.0625
2526.32,94.0625
2521.05,94.0625
2515.79,94.0625
2510.53,94.0625
2505.26,94.0625
2500.0,94.0625
2494.74,94.0625
2489.47,94.0625
2484.21,94.0625
2478.95,94.0625
2473.68,94.0625
2468.42,94.0625
2463.16,94.0625
2457.89,94.0625
2452.63,94.0625
2447.37,94.0625
2442.11,94.0625
2436.84,94.0625
2431.58,94.0625
2426.32,94.0625
2421.05,93.75
2415.79,93.75
2410.53,93.75
2405.26,93.75
2400.0,93.75
2394.74,93.4375
2389.47,93.4375
2384.21,93.4375
2378.95,93.4375
2373.68,93.4375
2368.42,93.4375
2363.16,93.4375
2357.89,93.125
2352.63,93.125
2347.37,93.125
2342.11,93.125
2336.84,93.125
2331.58,93.125
2326.32,92.8125
2321.05,92.8125
2315.79,92.8125
2310.53,92.5
2305.26,92.1875
2300.0,91.5625
2294.74,90.9375
2289.47,89.6875
2284.21,87.8125
2278.95,85.625
2273.68,82.1875
2268.42,72.5
2263.16,55.3125
2257.89,45.625
2252.63,45
2247.37,46.5625
2242.11,55.3125
2236.84,63.75
2231.58,73.4375
2226.32,80.0
2221.05,84.0625
2215.79,86.5625
2210.53,88.4375
2205.26,89.0625
2200.0,89.6875
2194.74,89.6875
2189.47,89.6875
2184.21,90.0
2178.95,90.3125
2173.68,90.3125
2168.42,90.625
2163.16,90.625
2157.89,90.9375
2152.63,90.9375
2147.37,91.25
2142.11,91.5625
2136.84,91.5625
2131.58,91.875
2126.32,91.875
2121.05,91.875
2115.79,92.1875
2110.53,92.1875
2105.26,92.1875
2100.0,92.1875
2094.74,92.5
2089.47,92.8125
2084.21,93.125
2078.95,93.125
2073.68,93.4375
2068.42,93.4375
2063.16,93.4375
2057.89,93.125
2052.63,93.125
2047.37,93.125
2042.11,93.125
2036.84,93.125
2031.58,92.8125
2026.32,92.8125
2021.05,92.8125
2015.79,92.8125
2010.53,92.8125
2005.26,92.8125
2000,92.8125
1994.74,92.5
1989.47,92.5
1984.21,92.5
1978.95,92.5
1973.68,92.1875
1968.42,92.1875
1963.16,92.1875
1957.89,92.5
1952.63,92.5
1947.37,92.5
1942.11,92.5
1936.84,92.5
1931.58,92.1875
1926.32,91.5625
1921.05,90.625
1915.79,90.3125
1910.53,89.375
1905.26,87.8125
1900.0,85.625
1894.74,81.25
1889.47,72.8125
1884.21,64.6875
1878.95,50.3125
1873.68,40.9375
1868.42,40.9375
1863.16,42.8125
1857.89,44.6875
1852.63,46.875
1847.37,53.4375
1842.11,58.125
1836.84,61.875
1831.58,67.1875
1826.32,72.5
1821.05,78.4375
1815.79,83.125
1810.53,86.5625
1805.26,87.8125
1800.0,88.75
1794.74,89.0625
1789.47,87.1875
1784.21,85.625
1778.95,84.6875
1773.68,84.0625
1768.42,82.5
1763.16,74.0625
1757.89,66.875
1752.63,59.375
1747.37,57.8125
1742.11,60.0
1736.84,66.875
1731.58,69.375
1726.32,72.1875
1721.05,78.4375
1715.79,80.0
1710.53,81.25
1705.26,82.5
1700.0,84.0625
1694.74,84.375
1689.47,83.75
1684.21,83.75
1678.95,84.6875
1673.68,81.875
1668.42,80.9375
1663.16,81.25
1657.89,83.75
1652.63,83.4375
1647.37,82.8125
1642.11,82.1875
1636.84,80.0
1631.58,78.75
1626.32,76.5625
1621.05,73.125
1615.79,70.0
1610.53,67.1875
1605.26,65.625
1600.0,59.0625
1594.74,53.75
1589.47,53.75
1584.21,57.1875
1578.95,52.1875
1573.68,52.1875
1568.42,58.4375
1563.16,67.8125
1557.89,74.375
1552.63,78.4375
1547.37,81.5625
1542.11,84.6875
1536.84,86.25
1531.58,86.875
1526.32,88.4375
1521.05,89.375
1515.79,89.6875
1510.53,89.0625
1505.26,88.4375
1500.0,88.4375
1494.74,89.0625
1489.47,89.6875
1484.21,90.625
1478.95,90.625
1473.68,90.625
1468.42,90.625
1463.16,90.625
1457.89,90.3125
1452.63,90.3125
1447.37,90.3125
1442.11,90.3125
1436.84,90.625
1431.58,90.625
1426.32,90.3125
1421.05,89.375
1415.79,88.4375
1410.53,88.4375
1405.26,88.75
1400.0,90.0
1394.74,90.625
1389.47,90.625
1384.21,90.3125
1378.95,89.6875
1373.68,89.6875
1368.42,90.9375
1363.16,90.9375
1357.89,90.9375
1352.63,90.9375
1347.37,90.9375
1342.11,90.9375
1336.84,90.9375
1331.58,90.9375
1326.32,90.9375
1321.05,90.9375
1315.79,90.9375
1310.53,90.9375
1305.26,91.25
1300.0,91.25
1294.74,90.9375
1289.47,90.9375
1284.21,90.625
1278.95,89.6875
1273.68,88.4375
1268.42,86.25
1263.16,86.25
1257.89,86.5625
1252.63,86.25
1247.37,86.25
1242.11,86.25
1236.84,86.25
1231.58,86.25
1226.32,86.25
1221.05,85.625
1215.79,85.625
1210.53,87.5
1205.26,88.125
1200.0,86.875
1194.74,84.375
1189.47,83.75
1184.21,83.75
1178.95,83.75
1173.68,84.0625
1168.42,84.375
1163.16,83.4375
1157.89,81.25
1152.63,80.625
1147.37,81.5625
1142.11,84.6875
1136.84,86.875
1131.58,88.4375
1126.32,89.0625
1121.05,89.375
1115.79,89.6875
1110.53,90.3125
1105.26,90.3125
1100.0,90.3125
1094.74,90.0
1089.47,89.6875
1084.21,89.6875
1078.95,89.6875
1073.68,89.6875
1068.42,90.0
1063.16,90.3125
1057.89,90.625
1052.63,91.25
1047.37,91.25
1042.11,91.5625
1036.84,91.25
1031.58,90.9375
1026.32,90.9375
1021.05,90.9375
1015.79,90.625
1010.53,90.625
1005.26,90.625
1000.0,90.9375
994.737,90.9375
989.474,90.9375
984.211,91.5625
978.947,91.875
973.684,91.875
968.421,91.875
963.158,91.5625
957.895,90.3125
952.632,87.5
947.368,82.8125
942.105,80.9375
936.842,80.9375
931.579,83.75
926.316,90.0
921.053,90.9375
915.789,91.25
910.526,91.5625
905.263,91.875
900.0,91.875
894.737,91.5625
889.474,90.9375
884.211,90.625
878.947,90.0
873.684,89.375
868.421,88.75
863.158,87.8125
857.895,87.1875
852.632,85.625
847.368,82.8125
842.105,80.0
836.842,80.3125
831.579,85.0
826.316,88.75
821.053,90.625
815.789,91.875
810.526,92.5
805.263,93.125
800.0,93.4375
794.737,93.75
789.474,94.0625
784.211,94.0625
778.947,93.75
773.684,93.4375
768.421,93.4375
763.158,93.125
757.895,93.125
752.632,93.125
747.368,93.125
742.105,93.125
736.842,93.125
731.579,93.125
726.316,92.8125
721.053,92.8125
715.789,92.8125
710.526,92.8125
705.263,92.8125
700,93.125
694.737,93.125
689.474,93.125
684.211,91.25
678.947,92.5
673.684,92.1875
668.421,91.875
663.158,91.25
657.895,90.9375
652.632,90.625
647.368,90.3125
642.105,90.3125
636.842,90.3125
631.579,90.3125
626.316,90.3125
621.053,90.3125
615.789,90.625
610.526,90.9375
605.263,91.25
600,91.5625
594.737,91.5625
589.474,91.875
584.211,91.5625
578.947,91.25
573.684,91.25
568.421,90.9375
563.158,90.9375
557.895,90.625
552.632,90.3125
547.368,89.6875
542.105,89.375
536.842,88.4375
531.579,87.8125
526.316,86.875
521.053,86.5625
515.789,85.9375
510.526,85.625
505.263,85.625
500,85.625
494.737,85.625
489.474,85.3125
484.211,85.0
478.947,84.375
473.684,83.75
468.421,83.4375
463.158,83.4375
457.895,83.4375
452.632,83.4375
447.368,83.75
442.105,84.375
436.842,83.4375
431.579,80.9375
426.316,77.5
421.053,73.75
415.789,69.375
410.526,65.3125
405.263,62.8125
400.0,61.5625