File: data/public/sdbs/processed/samples/5-chloro-2-quinolinecarbonitrile.csv
Wavenumber,Intensity
4000.0,0.0
3994.74,82.5
3989.47,82.5
3984.21,82.5
3978.95,82.5
3973.68,82.5
3968.42,82.8125
3963.16,82.8125
3957.89,82.8125
3952.63,82.8125
3947.37,82.5
3942.11,82.1875
3936.84,82.1875
3931.58,82.1875
3926.32,82.5
3921.05,82.8125
3915.79,82.8125
3910.53,82.8125
3905.26,82.8125
3900.0,82.8125
3894.74,82.8125
3889.47,82.8125
3884.21,82.5
3878.95,82.5
3873.68,82.5
3868.42,82.5
3863.16,82.5
3857.89,82.8125
3852.63,82.8125
3847.37,82.8125
3842.11,82.8125
3836.84,82.8125
3831.58,82.8125
3826.32,82.8125
3821.05,82.8125
3815.79,83.125
3810.53,83.125
3805.26,83.125
3800.0,83.125
3794.74,83.125
3789.47,83.125
3784.21,83.125
3778.95,83.125
3773.68,83.125
3768.42,83.125
3763.16,83.125
3757.89,83.125
3752.63,83.125
3747.37,83.125
3742.11,82.8125
3736.84,82.8125
3731.58,82.8125
3726.32,82.8125
3721.05,82.8125
3715.79,83.125
3710.53,83.125
3705.26,83.4375
3700.0,83.4375
3694.74,83.4375
3689.47,83.4375
3684.21,83.4375
3678.95,83.125
3673.68,83.125
3668.42,83.125
3663.16,83.125
3657.89,83.125
3652.63,83.125
3647.37,83.125
3642.11,82.8125
3636.84,82.5
3631.58,82.5
3626.32,82.5
3621.05,82.5
3615.79,82.5
3610.53,82.5
3605.26,82.1875
3600.0,81.875
3594.74,81.875
3589.47,81.875
3584.21,81.875
3578.95,81.875
3573.68,81.5625
3568.42,81.5625
3563.16,81.5625
3557.89,81.5625
3552.63,81.5625
3547.37,81.25
3542.11,81.25
3536.84,81.25
3531.58,81.25
3526.32,81.25
3521.05,81.25
3515.79,80.9375
3510.53,80.625
3505.26,80.625
3500.0,80.625
3494.74,80.625
3489.47,80.3125
3484.21,80.3125
3478.95,80.0
3473.68,80.0
3468.42,79.6875
3463.16,79.375
3457.89,79.375
3452.63,79.0625
3447.37,78.75
3442.11,78.4375
3436.84,78.4375
3431.58,78.4375
3426.32,78.4375
3421.05,78.4375
3415.79,78.4375
3410.53,78.75
3405.26,78.75
3400.0,78.75
3394.74,79.0625
3389.47,79.0625
3384.21,79.375
3378.95,79.0625
3373.68,78.125
3368.42,76.5625
3363.16,75.0
3357.89,75.0
3352.63,75.625
3347.37,74.375
3342.11,73.75
3336.84,73.75
3331.58,72.5
3326.32,70.625
3321.05,68.4375
3315.79,65.9375
3310.53,61.875
3305.26,55.625
3300.0,46.875
3294.74,33.4375
3289.47,19.6875
3284.21,9.375
3278.95,6.25
3273.68,5.9375
3268.42,5.625
3263.16,5.0
3257.89,4.6875
3252.63,4.6875
3247.37,5.0
3242.11,5.625
3236.84,6.5625
3231.58,8.4375
3226.32,10.625
3221.05,10.9375
3215.79,9.6875
3210.53,8.4375
3205.26,7.1875
3200.0,7.5
3194.74,13.125
3189.47,34.0625
3184.21,51.25
3178.95,62.5
3173.68,67.8125
3168.42,71.5625
3163.16,75.0
3157.89,77.1875
3152.63,79.0625
3147.37,80.625
3142.11,81.875
3136.84,81.875
3131.58,81.875
3126.32,81.25
3121.05,80.3125
3115.79,80.0
3110.53,80.0
3105.26,80.625
3100.0,81.25
3094.74,81.5625
3089.47,81.25
3084.21,80.9375
3078.95,80.625
3073.68,80.625
3068.42,80.9375
3063.16,81.875
3057.89,82.1875
3052.63,82.5
3047.37,82.5
3042.11,82.8125
3036.84,83.125
3031.58,83.125
3026.32,83.4375
3021.05,83.75
3015.79,84.0625
3010.53,84.6875
3005.26,85.0
3000.0,85.3125
2994.74,86.25
2989.47,86.5625
2984.21,86.5625
2978.95,86.5625
2973.68,86.5625
2968.42,86.875
2963.16,87.1875
2957.89,87.1875
2952.63,87.5
2947.37,87.5
2942.11,87.5
2936.84,87.5
2931.58,87.5
2926.32,87.8125
2921.05,87.8125
2915.79,87.5
2910.53,87.5
2905.26,87.5
2900.0,87.5
2894.74,87.5
2889.47,87.5
2884.21,87.5
2878.95,87.5
2873.68,87.5
2868.42,87.5
2863.16,87.5
2857.89,87.5
2852.63,87.8125
2847.37,87.8125
2842.11,87.8125
2836.84,87.8125
2831.58,87.8125
2826.32,88.125
2821.05,88.125
2815.79,88.125
2810.53,88.125
2805.26,88.4375
2800.0,88.4375
2794.74,88.4375
2789.47,88.75
2784.21,89.6875
2778.95,81.25
2773.68,80.9375
2768.42,85.625
2763.16,87.1875
2757.89,87.8125
2752.63,88.125
2747.37,88.125
2742.11,88.125
2736.84,88.4375
2731.58,88.4375
2726.32,88.75
2721.05,88.75
2715.79,88.75
2710.53,88.75
2705.26,89.0625
2700.0,89.0625
2694.74,89.375
2689.47,89.375
2684.21,89.375
2678.95,89.375
2673.68,89.375
2668.42,89.375
2663.16,89.375
2657.89,89.6875
2652.63,89.6875
2647.37,89.6875
2642.11,89.6875
2636.84,89.6875
2631.58,89.6875
2626.32,90.0
2621.05,90.0
2615.79,90.3125
2610.53,90.3125
2605.26,90.625
2600.0,90.625
2594.74,90.625
2589.47,90.9375
2584.21,90.625
2578.95,90.625
2573.68,90.625
2568.42,90.3125
2563.16,90.3125
2557.89,90.0
2552.63,90.0
2547.37,89.6875
2542.11,89.0625
2536.84,88.125
2531.58,88.125
2526.32,89.375
2521.05,90.0
2515.79,90.3125
2510.53,90.625
2505.26,90.625
2500.0,90.9375
2494.74,90.9375
2489.47,90.9375
2484.21,90.9375
2478.95,90.625
2473.68,90.3125
2468.42,90.3125
2463.16,90.0
2457.89,90.3125
2452.63,90.3125
2447.37,90.3125
2442.11,90.3125
2436.84,90.625
2431.58,90.625
2426.32,90.625
2421.05,90.9375
2415.79,90.9375
2410.53,91.25
2405.26,91.5625
2400.0,91.5625
2394.74,91.5625
2389.47,91.25
2384.21,90.625
2378.95,90.3125
2373.68,90.0
2368.42,90.0
2363.16,90.3125
2357.89,90.3125
2352.63,90.3125
2347.37,90.3125
2342.11,90.3125
2336.84,90.625
2331.58,90.625
2326.32,90.625
2321.05,90.625
2315.79,90.9375
2310.53,90.9375
2305.26,90.9375
2300.0,91.25
2294.74,91.5625
2289.47,91.5625
2284.21,91.5625
2278.95,91.875
2273.68,91.875
2268.42,91.875
2263.16,91.5625
2257.89,91.25
2252.63,91.25
2247.37,90.9375
2242.11,90.9375
2236.84,90.9375
2231.58,90.9375
2226.32,90.9375
2221.05,91.25
2215.79,91.25
2210.53,91.5625
2205.26,91.5625
2200.0,91.5625
2194.74,91.875
2189.47,91.875
2184.21,91.875
2178.95,92.1875
2173.68,92.1875
2168.42,91.875
2163.16,90.3125
2157.89,90.0
2152.63,89.6875
2147.37,90.0
2142.11,90.9375
2136.84,91.5625
2131.58,91.875
2126.32,91.875
2121.05,91.875
2115.79,92.1875
2110.53,92.1875
2105.26,92.1875
2100.0,92.5
2094.74,92.8125
2089.47,92.8125
2084.21,93.125
2078.95,91.5625
2073.68,87.1875
2068.42,87.8125
2063.16,91.5625
2057.89,92.5
2052.63,93.125
2047.37,93.4375
2042.11,93.125
2036.84,84.6875
2031.58,69.375
2026.32,69.375
2021.05,74.6875
2015.79,79.6875
2010.53,83.4375
2005.26,85.625
2000,84.375
1994.74,69.375
1989.47,68.75
1984.21,75.3125
1978.95,81.25
1973.68,82.8125
1968.42,84.6875
1963.16,85.9375
1957.89,86.5625
1952.63,86.875
1947.37,87.5
1942.11,88.125
1936.84,88.4375
1931.58,87.5
1926.32,85.9375
1921.05,81.25
1915.79,77.1875
1910.53,74.375
1905.26,70.0
1900.0,68.125
1894.74,69.6875
1889.47,65.625
1884.21,56.25
1878.95,40.3125
1873.68,29.0625
1868.42,28.125
1863.16,27.5
1857.89,26.25
1852.63,26.5625
1847.37,35.9375
1842.11,44.0625
1836.84,51.875
1831.58,58.75
1826.32,66.25
1821.05,74.375
1815.79,79.6875
1810.53,82.5
1805.26,84.375
1800.0,85.625
1794.74,86.25
1789.47,86.25
1784.21,85.3125
1778.95,83.4375
1773.68,80.625
1768.42,69.0625
1763.16,63.4375
1757.89,57.1875
1752.63,47.1875
1747.37,45.3125
1742.11,49.375
1736.84,55.9375
1731.58,57.8125
1726.32,62.5
1721.05,71.875
1715.79,75.3125
1710.53,77.1875
1705.26,78.4375
1700.0,79.375
1694.74,80.0
1689.47,81.25
1684.21,81.5625
1678.95,83.125
1673.68,84.0625
1668.42,84.375
1663.16,84.6875
1657.89,85.0
1652.63,85.3125
1647.37,85.625
1642.11,67.8125
1636.84,59.375
1631.58,64.0625
1626.32,75.3125
1621.05,79.0625
1615.79,81.875
1610.53,82.8125
1605.26,83.4375
1600.0,83.75
1594.74,85.0
1589.47,85.9375
1584.21,86.25
1578.95,86.875
1573.68,87.1875
1568.42,87.1875
1563.16,87.1875
1557.89,87.1875
1552.63,86.5625
1547.37,74.6875
1542.11,75.9375
1536.84,83.4375
1531.58,86.25
1526.32,85.0
1521.05,73.125
1515.79,70.625
1510.53,70.625
1505.26,79.0625
1500.0,83.4375
1494.74,83.75
1489.47,82.5
1484.21,79.375
1478.95,78.125
1473.68,80.0
1468.42,83.75
1463.16,85.0
1457.89,85.625
1452.63,85.9375
1447.37,86.25
1442.11,83.4375
1436.84,80.3125
1431.58,80.0
1426.32,85.9375
1421.05,87.5
1415.79,88.125
1410.53,85.3125
1405.26,68.125
1400.0,68.75
1394.74,79.375
1389.47,83.4375
1384.21,84.6875
1378.95,86.25
1373.68,87.1875
1368.42,87.8125
1363.16,88.125
1357.89,88.4375
1352.63,88.4375
1347.37,88.4375
1342.11,88.4375
1336.84,88.4375
1331.58,88.4375
1326.32,88.75
1321.05,88.75
1315.79,88.75
1310.53,85.3125
1305.26,85.3125
1300.0,87.5
1294.74,88.4375
1289.47,88.75
1284.21,89.0625
1278.95,89.0625
1273.68,89.0625
1268.42,89.375
1263.16,89.6875
1257.89,89.6875
1252.63,90.0
1247.37,90.0
1242.11,90.0
1236.84,90.3125
1231.58,90.625
1226.32,90.625
1221.05,90.9375
1215.79,90.625
1210.53,89.0625
1205.26,86.25
1200.0,85.3125
1194.74,84.6875
1189.47,87.8125
1184.21,63.75
1178.95,54.6875
1173.68,54.375
1168.42,72.8125
1163.16,78.75
1157.89,82.8125
1152.63,84.6875
1147.37,85.3125
1142.11,85.625
1136.84,86.875
1131.58,87.5
1126.32,87.1875
1121.05,85.0
1115.79,78.75
1110.53,74.0625
1105.26,76.875
1100.0,82.5
1094.74,85.625
1089.47,87.1875
1084.21,87.5
1078.95,87.5
1073.68,87.1875
1068.42,87.8125
1063.16,88.4375
1057.89,89.0625
1052.63,89.375
1047.37,89.6875
1042.11,90.0
1036.84,90.0
1031.58,89.6875
1026.32,89.375
1021.05,88.4375
1015.79,87.8125
1010.53,85.9375
1005.26,81.5625
1000.0,69.0625
994.737,54.0625
989.474,61.5625
984.211,81.875
978.947,74.0625
973.684,57.8125
968.421,49.375
963.158,50.9375
957.895,60.625
952.632,70.625
947.368,79.0625
942.105,83.125
936.842,85.0
931.579,87.1875
926.316,88.4375
921.053,89.0625
915.789,89.375
910.526,89.375
905.263,89.0625
900.0,87.8125
894.737,75.9375
889.474,62.1875
884.211,63.125
878.947,83.125
873.684,85.3125
868.421,85.9375
863.158,85.0
857.895,84.6875
852.632,83.75
847.368,80.625
842.105,77.5
836.842,77.5
831.579,81.875
826.316,86.875
821.053,89.6875
815.789,91.5625
810.526,92.1875
805.263,93.125
800.0,93.75
794.737,93.75
789.474,93.4375
784.211,94.0625
778.947,94.0625
773.684,93.75
768.421,93.75
763.158,94.0625
757.895,93.75
752.632,93.75
747.368,93.75
742.105,93.75
736.842,93.75
731.579,93.75
726.316,93.75
721.053,93.75
715.789,93.75
710.526,94.0625
705.263,94.0625
700,94.0625
694.737,94.0625
689.474,94.0625
684.211,94.0625
678.947,94.0625
673.684,94.0625
668.421,94.0625
663.158,94.0625
657.895,94.0625
652.632,94.0625
647.368,94.0625
642.105,89.375
636.842,89.0625
631.579,90.0
626.316,91.5625
621.053,91.875
615.789,92.8125
610.526,93.4375
605.263,94.0625
600,94.6875
594.737,86.25
589.474,80.625
584.211,92.1875
578.947,94.0625
573.684,94.0625
568.421,93.125
563.158,92.8125
557.895,85.9375
552.632,78.125
547.368,89.0625
542.105,93.4375
536.842,93.75
531.579,94.0625
526.316,94.0625
521.053,94.0625
515.789,94.0625
510.526,94.0625
505.263,94.0625
500,94.0625
494.737,93.75
489.474,93.75
484.211,93.4375
478.947,93.4375
473.684,93.4375
468.421,93.4375
463.158,93.4375
457.895,93.125
452.632,92.1875
447.368,90.625
442.105,88.75
436.842,86.25
431.579,84.375
426.316,82.8125
421.053,81.875
415.789,80.9375
410.526,80.625
405.263,80.3125
400.0,79.6875