File: data/public/sdbs/processed/samples/5-cholesten-3beta-yl heptyl carbonate.csv
Wavenumber,Intensity
4000.0,0.0
3994.74,94.6875
3989.47,94.6875
3984.21,94.6875
3978.95,94.375
3973.68,94.0625
3968.42,93.75
3963.16,93.75
3957.89,93.75
3952.63,93.75
3947.37,94.0625
3942.11,94.0625
3936.84,93.75
3931.58,93.4375
3926.32,93.4375
3921.05,93.4375
3915.79,93.4375
3910.53,93.4375
3905.26,93.4375
3900.0,93.4375
3894.74,93.125
3889.47,92.8125
3884.21,92.8125
3878.95,92.5
3873.68,92.5
3868.42,92.5
3863.16,92.5
3857.89,92.5
3852.63,92.5
3847.37,92.5
3842.11,92.1875
3836.84,92.1875
3831.58,92.5
3826.32,92.1875
3821.05,92.1875
3815.79,92.1875
3810.53,91.875
3805.26,91.875
3800.0,91.875
3794.74,92.1875
3789.47,91.875
3784.21,91.875
3778.95,91.875
3773.68,91.875
3768.42,91.875
3763.16,91.875
3757.89,91.5625
3752.63,91.5625
3747.37,91.5625
3742.11,91.25
3736.84,91.25
3731.58,90.9375
3726.32,90.9375
3721.05,90.9375
3715.79,90.9375
3710.53,90.9375
3705.26,90.9375
3700.0,90.9375
3694.74,90.9375
3689.47,90.9375
3684.21,90.9375
3678.95,90.9375
3673.68,90.625
3668.42,90.3125
3663.16,90.0
3657.89,90.0
3652.63,90.0
3647.37,89.6875
3642.11,89.375
3636.84,89.0625
3631.58,88.75
3626.32,88.75
3621.05,88.75
3615.79,88.75
3610.53,88.4375
3605.26,88.4375
3600.0,88.125
3594.74,87.5
3589.47,87.5
3584.21,87.1875
3578.95,87.1875
3573.68,87.1875
3568.42,87.1875
3563.16,86.875
3557.89,86.875
3552.63,86.5625
3547.37,86.25
3542.11,86.25
3536.84,86.25
3531.58,85.9375
3526.32,85.9375
3521.05,85.625
3515.79,85.625
3510.53,85.3125
3505.26,85.0
3500.0,85.0
3494.74,84.6875
3489.47,84.375
3484.21,84.375
3478.95,84.375
3473.68,84.375
3468.42,84.375
3463.16,84.375
3457.89,84.375
3452.63,84.375
3447.37,84.375
3442.11,84.6875
3436.84,85.0
3431.58,85.0
3426.32,85.3125
3421.05,85.625
3415.79,85.9375
3410.53,85.9375
3405.26,86.25
3400.0,86.5625
3394.74,87.5
3389.47,87.8125
3384.21,88.125
3378.95,89.0625
3373.68,89.375
3368.42,89.375
3363.16,89.6875
3357.89,89.375
3352.63,89.375
3347.37,89.0625
3342.11,88.4375
3336.84,87.5
3331.58,86.5625
3326.32,85.625
3321.05,85.3125
3315.79,83.125
3310.53,80.3125
3305.26,75.3125
3300.0,66.25
3294.74,50.625
3289.47,32.5
3284.21,16.875
3278.95,10.625
3273.68,8.75
3268.42,8.75
3263.16,6.25
3257.89,4.6875
3252.63,4.6875
3247.37,5.9375
3242.11,9.6875
3236.84,13.4375
3231.58,17.5
3226.32,20.3125
3221.05,25.3125
3215.79,19.375
3210.53,17.8125
3205.26,13.75
3200.0,14.375
3194.74,26.5625
3189.47,49.375
3184.21,64.0625
3178.95,73.75
3173.68,79.0625
3168.42,82.8125
3163.16,84.6875
3157.89,86.5625
3152.63,87.8125
3147.37,88.75
3142.11,89.375
3136.84,89.6875
3131.58,89.6875
3126.32,89.375
3121.05,89.0625
3115.79,89.0625
3110.53,89.0625
3105.26,89.375
3100.0,90.0
3094.74,90.3125
3089.47,90.0
3084.21,90.0
3078.95,90.0
3073.68,90.0
3068.42,90.0
3063.16,90.0
3057.89,90.3125
3052.63,90.625
3047.37,90.9375
3042.11,90.9375
3036.84,91.25
3031.58,91.25
3026.32,91.5625
3021.05,91.5625
3015.79,91.5625
3010.53,91.875
3005.26,91.875
3000.0,92.5
2994.74,92.8125
2989.47,93.125
2984.21,93.125
2978.95,93.4375
2973.68,93.4375
2968.42,93.4375
2963.16,93.4375
2957.89,93.4375
2952.63,93.4375
2947.37,93.4375
2942.11,93.4375
2936.84,93.4375
2931.58,93.4375
2926.32,93.75
2921.05,93.75
2915.79,93.4375
2910.53,93.4375
2905.26,93.4375
2900.0,93.4375
2894.74,93.4375
2889.47,93.4375
2884.21,93.125
2878.95,93.125
2873.68,93.125
2868.42,92.8125
2863.16,93.125
2857.89,93.125
2852.63,93.125
2847.37,93.125
2842.11,93.125
2836.84,93.125
2831.58,93.4375
2826.32,93.4375
2821.05,93.4375
2815.79,93.4375
2810.53,93.4375
2805.26,93.4375
2800.0,93.4375
2794.74,93.4375
2789.47,93.4375
2784.21,93.125
2778.95,93.125
2773.68,93.125
2768.42,93.125
2763.16,93.125
2757.89,93.125
2752.63,93.4375
2747.37,93.4375
2742.11,93.4375
2736.84,93.75
2731.58,93.75
2726.32,93.75
2721.05,94.0625
2715.79,94.0625
2710.53,94.0625
2705.26,94.0625
2700.0,94.0625
2694.74,94.0625
2689.47,94.0625
2684.21,94.0625
2678.95,94.0625
2673.68,94.0625
2668.42,94.0625
2663.16,94.0625
2657.89,94.0625
2652.63,94.0625
2647.37,94.0625
2642.11,94.0625
2636.84,94.0625
2631.58,94.0625
2626.32,94.0625
2621.05,94.0625
2615.79,94.0625
2610.53,94.375
2605.26,94.375
2600.0,94.375
2594.74,94.375
2589.47,94.375
2584.21,94.375
2578.95,94.375
2573.68,94.375
2568.42,94.375
2563.16,94.375
2557.89,94.375
2552.63,94.375
2547.37,94.6875
2542.11,94.6875
2536.84,94.6875
2531.58,94.6875
2526.32,94.6875
2521.05,94.6875
2515.79,94.6875
2510.53,94.6875
2505.26,94.6875
2500.0,94.6875
2494.74,94.6875
2489.47,94.6875
2484.21,94.6875
2478.95,94.6875
2473.68,94.6875
2468.42,94.6875
2463.16,95.0
2457.89,95.0
2452.63,95.0
2447.37,94.6875
2442.11,94.6875
2436.84,94.6875
2431.58,94.6875
2426.32,94.6875
2421.05,94.6875
2415.79,94.6875
2410.53,94.375
2405.26,94.375
2400.0,94.375
2394.74,94.375
2389.47,94.375
2384.21,94.375
2378.95,94.375
2373.68,94.375
2368.42,94.375
2363.16,94.0625
2357.89,94.0625
2352.63,94.0625
2347.37,93.75
2342.11,93.75
2336.84,93.4375
2331.58,93.4375
2326.32,93.4375
2321.05,93.125
2315.79,93.125
2310.53,92.8125
2305.26,92.8125
2300.0,91.875
2294.74,90.9375
2289.47,89.375
2284.21,85.9375
2278.95,81.5625
2273.68,75.9375
2268.42,60.0
2263.16,40.625
2257.89,37.5
2252.63,38.75
2247.37,45.625
2242.11,62.8125
2236.84,75.625
2231.58,82.5
2226.32,86.25
2221.05,88.75
2215.79,90.0
2210.53,90.625
2205.26,90.9375
2200.0,90.9375
2194.74,91.25
2189.47,91.25
2184.21,91.5625
2178.95,91.875
2173.68,91.875
2168.42,91.875
2163.16,91.875
2157.89,92.1875
2152.63,92.1875
2147.37,92.5
2142.11,92.8125
2136.84,93.125
2131.58,93.4375
2126.32,93.4375
2121.05,93.75
2115.79,93.75
2110.53,93.75
2105.26,93.75
2100.0,93.75
2094.74,94.0625
2089.47,94.0625
2084.21,94.375
2078.95,94.375
2073.68,94.375
2068.42,94.375
2063.16,94.375
2057.89,94.375
2052.63,94.375
2047.37,94.375
2042.11,94.375
2036.84,94.0625
2031.58,94.0625
2026.32,94.0625
2021.05,93.75
2015.79,93.75
2010.53,93.4375
2005.26,93.4375
2000,93.4375
1994.74,93.4375
1989.47,93.4375
1984.21,93.4375
1978.95,93.4375
1973.68,93.4375
1968.42,93.4375
1963.16,93.4375
1957.89,93.75
1952.63,93.75
1947.37,94.0625
1942.11,94.0625
1936.84,94.0625
1931.58,93.75
1926.32,93.125
1921.05,92.5
1915.79,91.875
1910.53,91.25
1905.26,89.6875
1900.0,87.5
1894.74,83.125
1889.47,76.5625
1884.21,66.25
1878.95,52.8125
1873.68,42.8125
1868.42,42.5
1863.16,44.6875
1857.89,46.5625
1852.63,49.0625
1847.37,56.875
1842.11,60.625
1836.84,65.625
1831.58,70.3125
1826.32,74.0625
1821.05,80.0
1815.79,84.0625
1810.53,87.1875
1805.26,88.75
1800.0,89.375
1794.74,88.4375
1789.47,86.875
1784.21,82.1875
1778.95,74.6875
1773.68,73.75
1768.42,75.3125
1763.16,74.0625
1757.89,64.375
1752.63,61.25
1747.37,61.25
1742.11,62.8125
1736.84,67.1875
1731.58,67.1875
1726.32,71.5625
1721.05,78.75
1715.79,75.9375
1710.53,76.875
1705.26,81.25
1700.0,83.75
1694.74,82.1875
1689.47,78.125
1684.21,77.1875
1678.95,80.0
1673.68,80.0
1668.42,75.9375
1663.16,74.375
1657.89,75.9375
1652.63,77.8125
1647.37,78.125
1642.11,76.875
1636.84,75.0
1631.58,71.25
1626.32,65.9375
1621.05,60.3125
1615.79,52.8125
1610.53,46.25
1605.26,40.9375
1600.0,36.875
1594.74,32.5
1589.47,32.5
1584.21,35.3125
1578.95,28.75
1573.68,28.125
1568.42,30.625
1563.16,36.875
1557.89,43.75
1552.63,52.5
1547.37,59.0625
1542.11,65.3125
1536.84,68.4375
1531.58,70.9375
1526.32,74.6875
1521.05,79.0625
1515.79,80.3125
1510.53,81.25
1505.26,81.875
1500.0,81.875
1494.74,81.875
1489.47,84.0625
1484.21,85.625
1478.95,86.5625
1473.68,87.1875
1468.42,87.5
1463.16,87.1875
1457.89,87.1875
1452.63,86.875
1447.37,86.875
1442.11,87.1875
1436.84,88.125
1431.58,88.4375
1426.32,88.4375
1421.05,87.1875
1415.79,85.9375
1410.53,85.3125
1405.26,86.875
1400.0,87.8125
1394.74,89.6875
1389.47,90.0
1384.21,89.375
1378.95,88.4375
1373.68,88.4375
1368.42,90.3125
1363.16,90.9375
1357.89,91.25
1352.63,90.3125
1347.37,86.875
1342.11,86.5625
1336.84,87.5
1331.58,88.125
1326.32,87.8125
1321.05,88.125
1315.79,88.125
1310.53,88.4375
1305.26,88.75
1300.0,88.75
1294.74,89.0625
1289.47,88.75
1284.21,88.4375
1278.95,87.1875
1273.68,85.9375
1268.42,81.875
1263.16,76.5625
1257.89,77.1875
1252.63,82.8125
1247.37,82.5
1242.11,80.3125
1236.84,80.0
1231.58,80.3125
1226.32,79.0625
1221.05,70.9375
1215.79,70.9375
1210.53,77.5
1205.26,80.0
1200.0,76.25
1194.74,70.9375
1189.47,70.9375
1184.21,75.625
1178.95,81.5625
1173.68,80.9375
1168.42,79.6875
1163.16,78.4375
1157.89,75.625
1152.63,75.0
1147.37,76.5625
1142.11,80.3125
1136.84,82.5
1131.58,85.0
1126.32,85.625
1121.05,84.375
1115.79,85.0
1110.53,87.1875
1105.26,88.4375
1100.0,88.4375
1094.74,88.4375
1089.47,88.125
1084.21,88.125
1078.95,88.125
1073.68,88.125
1068.42,88.4375
1063.16,89.375
1057.89,90.0
1052.63,90.625
1047.37,91.25
1042.11,91.875
1036.84,91.25
1031.58,90.625
1026.32,90.0
1021.05,89.6875
1015.79,88.125
1010.53,85.0
1005.26,85.625
1000.0,89.0625
994.737,90.625
989.474,90.625
984.211,90.9375
978.947,91.25
973.684,91.25
968.421,91.5625
963.158,91.25
957.895,90.0
952.632,85.3125
947.368,80.9375
942.105,81.25
936.842,81.25
931.579,84.6875
926.316,89.375
921.053,90.9375
915.789,91.25
910.526,91.5625
905.263,91.875
900.0,92.1875
894.737,92.1875
889.474,91.5625
884.211,90.9375
878.947,90.625
873.684,89.6875
868.421,89.0625
863.158,88.4375
857.895,87.5
852.632,86.25
847.368,85.0
842.105,84.6875
836.842,85.3125
831.579,87.5
826.316,90.3125
821.053,91.875
815.789,92.8125
810.526,93.125
805.263,93.75
800.0,94.0625
794.737,94.375
789.474,94.6875
784.211,94.6875
778.947,94.375
773.684,94.0625
768.421,94.0625
763.158,93.75
757.895,93.75
752.632,93.75
747.368,93.75
742.105,93.4375
736.842,93.4375
731.579,93.125
726.316,93.125
721.053,93.125
715.789,93.125
710.526,93.75
705.263,94.0625
700,94.375
694.737,94.6875
689.474,94.6875
684.211,94.375
678.947,93.75
673.684,93.125
668.421,92.8125
663.158,92.5
657.895,92.1875
652.632,92.1875
647.368,92.1875
642.105,92.1875
636.842,92.1875
631.579,92.1875
626.316,92.5
621.053,92.5
615.789,92.8125
610.526,92.8125
605.263,93.125
600,93.125
594.737,93.125
589.474,92.8125
584.211,92.5
578.947,92.1875
573.684,91.875
568.421,91.875
563.158,91.875
557.895,91.875
552.632,91.875
547.368,91.5625
542.105,90.9375
536.842,90.9375
531.579,90.625
526.316,90.0
521.053,89.6875
515.789,89.0625
510.526,88.75
505.263,88.4375
500,88.4375
494.737,88.4375
489.474,88.4375
484.211,88.4375
478.947,88.125
473.684,88.125
468.421,87.8125
463.158,87.8125
457.895,87.8125
452.632,87.5
447.368,87.1875
442.105,86.5625
436.842,85.3125
431.579,82.8125
426.316,79.6875
421.053,76.875
415.789,73.4375
410.526,70.3125
405.263,68.125
400.0,67.1875