File: data/public/sdbs/processed/samples/6-chloro-2-quinolinecarbonitrile.csv
Wavenumber,Intensity
4000.0,0.0
3994.74,70.625
3989.47,70.3125
3984.21,70.0
3978.95,70.0
3973.68,70.0
3968.42,70.0
3963.16,70.0
3957.89,70.0
3952.63,69.6875
3947.37,69.375
3942.11,69.375
3936.84,69.375
3931.58,69.375
3926.32,69.375
3921.05,69.0625
3915.79,69.0625
3910.53,69.0625
3905.26,68.75
3900.0,68.75
3894.74,68.75
3889.47,68.4375
3884.21,68.125
3878.95,68.125
3873.68,68.125
3868.42,67.8125
3863.16,67.5
3857.89,67.1875
3852.63,67.1875
3847.37,66.875
3842.11,66.875
3836.84,66.875
3831.58,67.5
3826.32,68.125
3821.05,68.125
3815.79,67.5
3810.53,67.1875
3805.26,67.1875
3800.0,67.1875
3794.74,66.875
3789.47,66.875
3784.21,66.875
3778.95,66.875
3773.68,66.875
3768.42,66.875
3763.16,66.875
3757.89,66.875
3752.63,66.875
3747.37,66.875
3742.11,66.875
3736.84,66.5625
3731.58,66.5625
3726.32,66.5625
3721.05,66.875
3715.79,66.875
3710.53,67.1875
3705.26,67.1875
3700.0,67.1875
3694.74,67.1875
3689.47,66.875
3684.21,66.875
3678.95,66.875
3673.68,66.5625
3668.42,66.5625
3663.16,66.25
3657.89,66.25
3652.63,66.25
3647.37,66.25
3642.11,66.25
3636.84,66.5625
3631.58,66.25
3626.32,65.9375
3621.05,65.9375
3615.79,65.625
3610.53,65.625
3605.26,65.625
3600.0,65.0
3594.74,64.6875
3589.47,64.6875
3584.21,64.6875
3578.95,64.6875
3573.68,64.375
3568.42,64.375
3563.16,64.0625
3557.89,64.0625
3552.63,64.0625
3547.37,64.0625
3542.11,64.375
3536.84,64.375
3531.58,64.0625
3526.32,64.0625
3521.05,63.75
3515.79,63.4375
3510.53,63.4375
3505.26,63.125
3500.0,62.8125
3494.74,62.5
3489.47,62.5
3484.21,62.1875
3478.95,62.5
3473.68,62.5
3468.42,62.5
3463.16,62.5
3457.89,62.1875
3452.63,61.875
3447.37,61.5625
3442.11,61.5625
3436.84,61.875
3431.58,61.875
3426.32,62.1875
3421.05,62.1875
3415.79,62.5
3410.53,62.5
3405.26,62.1875
3400.0,62.1875
3394.74,62.5
3389.47,63.125
3384.21,63.4375
3378.95,63.75
3373.68,62.8125
3368.42,61.5625
3363.16,56.5625
3357.89,56.25
3352.63,60.9375
3347.37,58.125
3342.11,59.375
3336.84,60.0
3331.58,59.0625
3326.32,57.5
3321.05,56.875
3315.79,55.9375
3310.53,54.6875
3305.26,50.625
3300.0,45.625
3294.74,37.5
3289.47,27.5
3284.21,15.625
3278.95,11.5625
3273.68,10.0
3268.42,11.25
3263.16,7.5
3257.89,4.6875
3252.63,4.6875
3247.37,5.3125
3242.11,9.375
3236.84,14.0625
3231.58,18.75
3226.32,23.4375
3221.05,24.0625
3215.79,21.5625
3210.53,17.1875
3205.26,13.4375
3200.0,14.375
3194.74,28.125
3189.47,48.75
3184.21,59.375
3178.95,65.0
3173.68,68.125
3168.42,69.0625
3163.16,70.625
3157.89,71.25
3152.63,71.875
3147.37,72.1875
3142.11,72.1875
3136.84,72.1875
3131.58,71.875
3126.32,71.5625
3121.05,71.25
3115.79,71.25
3110.53,71.875
3105.26,72.1875
3100.0,72.1875
3094.74,71.875
3089.47,71.5625
3084.21,71.5625
3078.95,71.5625
3073.68,71.5625
3068.42,71.5625
3063.16,71.875
3057.89,71.875
3052.63,72.1875
3047.37,72.5
3042.11,72.5
3036.84,72.8125
3031.58,73.125
3026.32,73.125
3021.05,73.4375
3015.79,73.4375
3010.53,73.75
3005.26,73.75
3000.0,73.75
2994.74,74.0625
2989.47,74.0625
2984.21,74.375
2978.95,74.6875
2973.68,74.6875
2968.42,75.0
2963.16,75.0
2957.89,75.0
2952.63,75.0
2947.37,75.3125
2942.11,75.3125
2936.84,75.3125
2931.58,75.3125
2926.32,75.3125
2921.05,75.3125
2915.79,75.625
2910.53,75.625
2905.26,75.625
2900.0,75.9375
2894.74,75.9375
2889.47,75.9375
2884.21,75.9375
2878.95,75.9375
2873.68,75.9375
2868.42,75.9375
2863.16,75.9375
2857.89,76.25
2852.63,76.25
2847.37,76.25
2842.11,75.9375
2836.84,75.9375
2831.58,76.25
2826.32,76.25
2821.05,76.5625
2815.79,76.875
2810.53,77.1875
2805.26,77.1875
2800.0,77.1875
2794.74,77.8125
2789.47,78.4375
2784.21,79.375
2778.95,80.9375
2773.68,52.1875
2768.42,60.9375
2763.16,73.125
2757.89,75.9375
2752.63,76.25
2747.37,76.5625
2742.11,77.1875
2736.84,77.5
2731.58,77.8125
2726.32,78.125
2721.05,78.125
2715.79,78.4375
2710.53,78.4375
2705.26,78.75
2700.0,78.75
2694.74,79.0625
2689.47,79.0625
2684.21,79.0625
2678.95,79.375
2673.68,79.375
2668.42,79.6875
2663.16,79.6875
2657.89,80.0
2652.63,80.0
2647.37,80.3125
2642.11,80.3125
2636.84,80.3125
2631.58,80.3125
2626.32,80.3125
2621.05,80.3125
2615.79,80.625
2610.53,80.9375
2605.26,80.9375
2600.0,80.9375
2594.74,81.25
2589.47,81.25
2584.21,81.5625
2578.95,81.5625
2573.68,81.875
2568.42,81.5625
2563.16,81.25
2557.89,81.25
2552.63,80.9375
2547.37,80.625
2542.11,80.3125
2536.84,80.3125
2531.58,80.0
2526.32,80.0
2521.05,80.3125
2515.79,80.3125
2510.53,81.25
2505.26,81.5625
2500.0,82.1875
2494.74,82.5
2489.47,82.5
2484.21,82.5
2478.95,82.5
2473.68,82.5
2468.42,82.8125
2463.16,82.8125
2457.89,83.125
2452.63,83.125
2447.37,83.125
2442.11,82.8125
2436.84,82.8125
2431.58,82.5
2426.32,82.5
2421.05,82.5
2415.79,82.5
2410.53,82.5
2405.26,82.8125
2400.0,82.8125
2394.74,83.125
2389.47,83.4375
2384.21,83.4375
2378.95,83.75
2373.68,84.0625
2368.42,84.375
2363.16,84.6875
2357.89,85.0
2352.63,85.0
2347.37,84.6875
2342.11,83.4375
2336.84,82.1875
2331.58,78.125
2326.32,78.125
2321.05,80.3125
2315.79,81.875
2310.53,82.5
2305.26,82.5
2300.0,80.9375
2294.74,80.0
2289.47,80.0
2284.21,82.5
2278.95,83.75
2273.68,84.6875
2268.42,84.6875
2263.16,85.0
2257.89,85.0
2252.63,85.0
2247.37,85.0
2242.11,85.0
2236.84,85.0
2231.58,85.0
2226.32,85.0
2221.05,85.0
2215.79,85.0
2210.53,85.0
2205.26,85.0
2200.0,85.3125
2194.74,85.3125
2189.47,85.625
2184.21,85.625
2178.95,85.9375
2173.68,85.9375
2168.42,85.9375
2163.16,86.25
2157.89,86.25
2152.63,86.25
2147.37,86.25
2142.11,86.25
2136.84,86.25
2131.58,86.25
2126.32,86.25
2121.05,86.25
2115.79,87.1875
2110.53,88.125
2105.26,89.0625
2100.0,87.5
2094.74,82.5
2089.47,82.1875
2084.21,83.4375
2078.95,80.625
2073.68,72.5
2068.42,68.125
2063.16,68.125
2057.89,71.875
2052.63,78.4375
2047.37,73.125
2042.11,72.1875
2036.84,63.75
2031.58,40.3125
2026.32,50.9375
2021.05,68.4375
2015.79,75.625
2010.53,78.75
2005.26,80.9375
2000,80.9375
1994.74,78.75
1989.47,71.875
1984.21,75.9375
1978.95,81.25
1973.68,82.1875
1968.42,83.125
1963.16,83.4375
1957.89,85.9375
1952.63,86.875
1947.37,87.1875
1942.11,87.1875
1936.84,88.4375
1931.58,89.6875
1926.32,91.25
1921.05,93.125
1915.79,94.375
1910.53,47.1875
1905.26,27.1875
1900.0,22.5
1894.74,24.375
1889.47,43.125
1884.21,53.4375
1878.95,48.4375
1873.68,41.25
1868.42,41.25
1863.16,41.875
1857.89,40.3125
1852.63,40.3125
1847.37,44.375
1842.11,54.0625
1836.84,60.9375
1831.58,65.0
1826.32,67.5
1821.05,74.0625
1815.79,77.5
1810.53,79.375
1805.26,80.625
1800.0,81.25
1794.74,81.875
1789.47,82.8125
1784.21,82.8125
1778.95,81.25
1773.68,77.8125
1768.42,65.9375
1763.16,64.0625
1757.89,64.0625
1752.63,49.6875
1747.37,33.125
1742.11,36.25
1736.84,57.1875
1731.58,63.125
1726.32,68.75
1721.05,73.125
1715.79,76.5625
1710.53,77.8125
1705.26,78.75
1700.0,79.6875
1694.74,80.625
1689.47,81.875
1684.21,81.5625
1678.95,62.5
1673.68,50.3125
1668.42,67.8125
1663.16,75.3125
1657.89,77.8125
1652.63,80.0
1647.37,78.4375
1642.11,59.0625
1636.84,59.375
1631.58,78.4375
1626.32,81.875
1621.05,83.4375
1615.79,84.375
1610.53,84.6875
1605.26,84.6875
1600.0,77.8125
1594.74,77.5
1589.47,83.75
1584.21,85.9375
1578.95,80.625
1573.68,85.0
1568.42,87.1875
1563.16,87.5
1557.89,87.8125
1552.63,89.0625
1547.37,89.375
1542.11,88.75
1536.84,85.0
1531.58,84.6875
1526.32,67.5
1521.05,67.8125
1515.79,74.6875
1510.53,51.5625
1505.26,50.9375
1500.0,65.3125
1494.74,75.3125
1489.47,82.1875
1484.21,77.5
1478.95,51.5625
1473.68,64.0625
1468.42,76.5625
1463.16,80.3125
1457.89,82.1875
1452.63,83.75
1447.37,85.0
1442.11,86.25
1436.84,66.5625
1431.58,66.875
1426.32,81.5625
1421.05,84.375
1415.79,85.9375
1410.53,86.25
1405.26,85.625
1400.0,84.375
1394.74,81.25
1389.47,80.0
1384.21,81.875
1378.95,86.5625
1373.68,88.125
1368.42,89.375
1363.16,90.0
1357.89,90.9375
1352.63,92.1875
1347.37,93.4375
1342.11,94.375
1336.84,87.8125
1331.58,26.5625
1326.32,24.0625
1321.05,50.3125
1315.79,67.8125
1310.53,73.75
1305.26,75.9375
1300.0,77.8125
1294.74,80.625
1289.47,81.5625
1284.21,82.5
1278.95,83.125
1273.68,83.75
1268.42,84.0625
1263.16,84.6875
1257.89,85.0
1252.63,85.3125
1247.37,85.625
1242.11,85.9375
1236.84,85.9375
1231.58,86.25
1226.32,86.5625
1221.05,86.875
1215.79,87.1875
1210.53,87.1875
1205.26,86.875
1200.0,86.5625
1194.74,83.75
1189.47,75.0
1184.21,85.0
1178.95,85.625
1173.68,84.6875
1168.42,70.3125
1163.16,76.5625
1157.89,85.3125
1152.63,86.25
1147.37,86.875
1142.11,86.875
1136.84,86.875
1131.58,86.875
1126.32,86.875
1121.05,86.875
1115.79,86.875
1110.53,87.1875
1105.26,83.75
1100.0,44.0625
1094.74,65.625
1089.47,72.8125
1084.21,69.0625
1078.95,59.6875
1073.68,30.9375
1068.42,26.5625
1063.16,51.25
1057.89,74.6875
1052.63,82.1875
1047.37,84.6875
1042.11,84.0625
1036.84,83.75
1031.58,82.8125
1026.32,82.1875
1021.05,81.5625
1015.79,79.375
1010.53,71.5625
1005.26,55.9375
1000.0,31.5625
994.737,13.125
989.474,13.125
984.211,39.375
978.947,59.6875
973.684,65.3125
968.421,79.6875
963.158,77.1875
957.895,66.5625
952.632,62.5
947.368,62.5
942.105,65.625
936.842,72.1875
931.579,79.375
926.316,83.4375
921.053,85.0
915.789,85.0
910.526,85.625
905.263,86.25
900.0,86.5625
894.737,86.5625
889.474,86.875
884.211,86.875
878.947,86.875
873.684,86.875
868.421,86.25
863.158,85.625
857.895,85.0
852.632,83.75
847.368,83.125
842.105,82.5
836.842,82.5
831.579,78.125
826.316,80.9375
821.053,86.875
815.789,88.75
810.526,89.375
805.263,89.6875
800.0,90.3125
794.737,90.3125
789.474,90.3125
784.211,71.25
778.947,70.0
773.684,90.3125
768.421,90.3125
763.158,90.9375
757.895,89.375
752.632,89.0625
747.368,79.6875
742.105,65.3125
736.842,74.0625
731.579,85.0
726.316,86.875
721.053,88.125
715.789,88.4375
710.526,89.0625
705.263,89.375
700,89.375
694.737,89.375
689.474,89.375
684.211,89.375
678.947,89.375
673.684,89.0625
668.421,88.75
663.158,88.4375
657.895,88.4375
652.632,88.4375
647.368,88.4375
642.105,88.4375
636.842,88.75
631.579,88.125
626.316,76.25
621.053,75.9375
615.789,88.75
610.526,88.4375
605.263,88.4375
600,89.0625
594.737,89.6875
589.474,89.6875
584.211,89.375
578.947,89.375
573.684,89.6875
568.421,89.6875
563.158,89.6875
557.895,89.375
552.632,88.4375
547.368,87.1875
542.105,86.25
536.842,85.0
531.579,84.0625
526.316,83.4375
521.053,83.125
515.789,83.125
510.526,83.4375
505.263,84.0625
500,85.625
494.737,87.1875
489.474,86.5625
484.211,84.6875
478.947,82.1875
473.684,79.375
468.421,78.75
463.158,78.75
457.895,78.75
452.632,77.1875
447.368,74.375
442.105,70.9375
436.842,66.25
431.579,62.1875
426.316,59.6875
421.053,58.4375
415.789,58.125
410.526,58.4375
405.263,58.4375
400.0,58.4375