File: data/public/sdbs/processed/samples/8,10-diacetoxy-2,3-epoxy-4,10a,12-trihydroxy-1,1,4,12-tetramethylperhydro-7,8a-ethanobenz(f)azulene.csv
Wavenumber,Intensity
4000.0,0.0
3994.74,93.75
3989.47,94.0625
3984.21,94.0625
3978.95,94.0625
3973.68,94.0625
3968.42,94.0625
3963.16,93.75
3957.89,93.75
3952.63,93.75
3947.37,94.0625
3942.11,94.0625
3936.84,93.75
3931.58,93.75
3926.32,93.75
3921.05,93.75
3915.79,93.75
3910.53,94.0625
3905.26,94.0625
3900.0,94.0625
3894.74,93.75
3889.47,93.4375
3884.21,93.125
3878.95,93.125
3873.68,93.125
3868.42,93.125
3863.16,93.4375
3857.89,93.4375
3852.63,93.4375
3847.37,93.4375
3842.11,93.4375
3836.84,93.75
3831.58,93.75
3826.32,93.4375
3821.05,93.4375
3815.79,93.4375
3810.53,93.4375
3805.26,93.75
3800.0,94.0625
3794.74,94.0625
3789.47,93.75
3784.21,93.4375
3778.95,93.4375
3773.68,93.4375
3768.42,93.4375
3763.16,93.4375
3757.89,93.125
3752.63,93.125
3747.37,92.8125
3742.11,92.8125
3736.84,92.5
3731.58,92.5
3726.32,92.1875
3721.05,91.875
3715.79,91.5625
3710.53,90.9375
3705.26,90.3125
3700.0,89.375
3694.74,88.125
3689.47,86.5625
3684.21,84.0625
3678.95,80.625
3673.68,72.5
3668.42,60.3125
3663.16,45.625
3657.89,44.6875
3652.63,50.3125
3647.37,62.8125
3642.11,55.625
3636.84,43.4375
3631.58,32.8125
3626.32,31.25
3621.05,33.75
3615.79,43.4375
3610.53,48.4375
3605.26,51.5625
3600.0,52.5
3594.74,50.9375
3589.47,47.5
3584.21,42.8125
3578.95,36.25
3573.68,34.6875
3568.42,34.375
3563.16,34.0625
3557.89,35.3125
3552.63,44.375
3547.37,51.875
3542.11,57.1875
3536.84,60.3125
3531.58,63.75
3526.32,66.25
3521.05,68.75
3515.79,70.3125
3510.53,72.5
3505.26,74.6875
3500.0,76.25
3494.74,77.5
3489.47,78.125
3484.21,79.0625
3478.95,79.6875
3473.68,80.3125
3468.42,80.625
3463.16,81.25
3457.89,81.875
3452.63,82.1875
3447.37,82.5
3442.11,82.8125
3436.84,83.125
3431.58,83.4375
3426.32,83.75
3421.05,84.0625
3415.79,84.6875
3410.53,85.0
3405.26,84.6875
3400.0,85.9375
3394.74,86.25
3389.47,86.5625
3384.21,85.9375
3378.95,87.1875
3373.68,87.1875
3368.42,87.1875
3363.16,87.1875
3357.89,87.1875
3352.63,87.1875
3347.37,86.875
3342.11,86.25
3336.84,84.6875
3331.58,83.75
3326.32,82.5
3321.05,78.4375
3315.79,73.125
3310.53,65.0
3305.26,65.625
3300.0,46.25
3294.74,32.5
3289.47,36.5625
3284.21,20.9375
3278.95,9.6875
3273.68,8.4375
3268.42,12.8125
3263.16,9.375
3257.89,5.625
3252.63,4.6875
3247.37,5.9375
3242.11,11.5625
3236.84,17.5
3231.58,24.375
3226.32,29.6875
3221.05,32.8125
3215.79,28.75
3210.53,25.9375
3205.26,20.0
3200.0,20.3125
3194.74,37.5
3189.47,60.625
3184.21,73.125
3178.95,79.0625
3173.68,82.1875
3168.42,84.375
3163.16,85.9375
3157.89,87.1875
3152.63,87.5
3147.37,88.4375
3142.11,89.0625
3136.84,89.375
3131.58,89.375
3126.32,89.0625
3121.05,88.4375
3115.79,88.4375
3110.53,88.4375
3105.26,88.75
3100.0,89.0625
3094.74,89.0625
3089.47,89.0625
3084.21,89.0625
3078.95,89.0625
3073.68,89.0625
3068.42,89.375
3063.16,89.6875
3057.89,90.3125
3052.63,90.625
3047.37,90.625
3042.11,90.9375
3036.84,90.9375
3031.58,91.25
3026.32,91.5625
3021.05,91.5625
3015.79,91.875
3010.53,92.1875
3005.26,92.5
3000.0,92.5
2994.74,92.8125
2989.47,93.125
2984.21,93.125
2978.95,93.125
2973.68,92.8125
2968.42,92.8125
2963.16,92.8125
2957.89,92.8125
2952.63,92.5
2947.37,92.5
2942.11,92.8125
2936.84,92.8125
2931.58,93.125
2926.32,93.125
2921.05,92.8125
2915.79,92.8125
2910.53,93.125
2905.26,93.125
2900.0,93.125
2894.74,93.4375
2889.47,93.4375
2884.21,93.125
2878.95,93.125
2873.68,93.125
2868.42,93.125
2863.16,93.4375
2857.89,93.4375
2852.63,93.4375
2847.37,93.4375
2842.11,93.4375
2836.84,93.75
2831.58,93.75
2826.32,93.75
2821.05,93.75
2815.79,93.75
2810.53,93.75
2805.26,93.75
2800.0,93.75
2794.74,93.75
2789.47,93.75
2784.21,93.75
2778.95,93.75
2773.68,93.75
2768.42,93.75
2763.16,94.0625
2757.89,93.75
2752.63,93.75
2747.37,93.75
2742.11,93.75
2736.84,93.75
2731.58,93.75
2726.32,93.75
2721.05,93.75
2715.79,93.75
2710.53,94.0625
2705.26,94.0625
2700.0,94.375
2694.74,94.6875
2689.47,94.375
2684.21,94.375
2678.95,94.0625
2673.68,94.0625
2668.42,94.0625
2663.16,94.0625
2657.89,94.0625
2652.63,94.375
2647.37,94.375
2642.11,94.375
2636.84,94.6875
2631.58,94.6875
2626.32,94.6875
2621.05,94.6875
2615.79,94.375
2610.53,94.375
2605.26,94.375
2600.0,94.375
2594.74,94.6875
2589.47,94.6875
2584.21,94.6875
2578.95,94.6875
2573.68,94.6875
2568.42,94.6875
2563.16,94.6875
2557.89,94.6875
2552.63,94.6875
2547.37,94.6875
2542.11,94.6875
2536.84,94.6875
2531.58,94.6875
2526.32,94.6875
2521.05,94.6875
2515.79,94.6875
2510.53,94.6875
2505.26,94.6875
2500.0,94.6875
2494.74,94.6875
2489.47,94.6875
2484.21,95.0
2478.95,95.0
2473.68,94.6875
2468.42,94.6875
2463.16,94.6875
2457.89,94.6875
2452.63,94.6875
2447.37,94.375
2442.11,94.375
2436.84,94.375
2431.58,94.375
2426.32,94.375
2421.05,94.375
2415.79,94.375
2410.53,94.0625
2405.26,94.0625
2400.0,94.0625
2394.74,94.0625
2389.47,94.0625
2384.21,94.0625
2378.95,94.0625
2373.68,93.75
2368.42,93.75
2363.16,93.75
2357.89,93.4375
2352.63,93.125
2347.37,92.8125
2342.11,92.5
2336.84,92.1875
2331.58,91.875
2326.32,91.5625
2321.05,91.5625
2315.79,91.5625
2310.53,91.5625
2305.26,90.9375
2300.0,90.0
2294.74,89.0625
2289.47,86.875
2284.21,82.8125
2278.95,76.875
2273.68,68.125
2268.42,55.9375
2263.16,44.6875
2257.89,31.875
2252.63,15.3125
2247.37,8.125
2242.11,8.4375
2236.84,12.1875
2231.58,13.4375
2226.32,14.6875
2221.05,33.4375
2215.79,54.6875
2210.53,65.3125
2205.26,71.25
2200.0,77.1875
2194.74,81.5625
2189.47,83.125
2184.21,83.75
2178.95,85.625
2173.68,85.625
2168.42,86.5625
2163.16,88.125
2157.89,88.75
2152.63,89.0625
2147.37,89.0625
2142.11,89.0625
2136.84,89.0625
2131.58,89.0625
2126.32,89.0625
2121.05,89.375
2115.79,90.0
2110.53,90.625
2105.26,91.25
2100.0,91.875
2094.74,92.1875
2089.47,92.5
2084.21,92.8125
2078.95,93.125
2073.68,93.4375
2068.42,93.4375
2063.16,93.4375
2057.89,93.4375
2052.63,93.75
2047.37,93.75
2042.11,93.75
2036.84,93.75
2031.58,93.75
2026.32,93.75
2021.05,93.75
2015.79,93.4375
2010.53,93.4375
2005.26,93.125
2000,93.125
1994.74,93.125
1989.47,92.8125
1984.21,92.8125
1978.95,92.5
1973.68,92.1875
1968.42,92.1875
1963.16,92.1875
1957.89,92.1875
1952.63,92.1875
1947.37,92.1875
1942.11,92.1875
1936.84,91.875
1931.58,91.5625
1926.32,90.9375
1921.05,90.3125
1915.79,89.6875
1910.53,88.4375
1905.26,86.875
1900.0,85.0
1894.74,81.25
1889.47,73.75
1884.21,58.125
1878.95,46.25
1873.68,36.25
1868.42,36.25
1863.16,40.625
1857.89,42.1875
1852.63,43.4375
1847.37,47.5
1842.11,48.4375
1836.84,49.6875
1831.58,50.9375
1826.32,59.0625
1821.05,67.1875
1815.79,72.5
1810.53,75.3125
1805.26,77.1875
1800.0,78.75
1794.74,79.375
1789.47,76.875
1784.21,72.8125
1778.95,69.0625
1773.68,63.4375
1768.42,49.375
1763.16,46.25
1757.89,46.25
1752.63,43.125
1747.37,30.3125
1742.11,30.0
1736.84,27.8125
1731.58,27.8125
1726.32,33.4375
1721.05,49.6875
1715.79,50.0
1710.53,50.625
1705.26,54.375
1700.0,62.5
1694.74,70.625
1689.47,69.6875
1684.21,70.3125
1678.95,66.5625
1673.68,66.875
1668.42,67.1875
1663.16,71.25
1657.89,77.5
1652.63,75.3125
1647.37,70.3125
1642.11,71.25
1636.84,70.9375
1631.58,65.9375
1626.32,63.125
1621.05,68.75
1615.79,55.0
1610.53,42.1875
1605.26,40.3125
1600.0,41.25
1594.74,24.6875
1589.47,12.5
1584.21,8.4375
1578.95,7.1875
1573.68,8.125
1568.42,13.75
1563.16,13.75
1557.89,19.0625
1552.63,25.9375
1547.37,41.25
1542.11,51.25
1536.84,60.625
1531.58,66.25
1526.32,61.25
1521.05,61.25
1515.79,67.1875
1510.53,72.1875
1505.26,70.3125
1500.0,65.625
1494.74,60.0
1489.47,56.5625
1484.21,57.5
1478.95,57.8125
1473.68,58.125
1468.42,66.25
1463.16,74.0625
1457.89,70.0
1452.63,66.25
1447.37,58.4375
1442.11,50.9375
1436.84,51.5625
1431.58,59.0625
1426.32,68.75
1421.05,65.9375
1415.79,50.0
1410.53,47.8125
1405.26,51.25
1400.0,55.625
1394.74,51.875
1389.47,52.1875
1384.21,55.3125
1378.95,59.6875
1373.68,61.5625
1368.42,73.125
1363.16,71.875
1357.89,68.4375
1352.63,45.9375
1347.37,37.1875
1342.11,43.75
1336.84,64.6875
1331.58,75.625
1326.32,80.0
1321.05,78.125
1315.79,74.375
1310.53,68.75
1305.26,60.9375
1300.0,55.0
1294.74,43.125
1289.47,24.6875
1284.21,22.5
1278.95,29.375
1273.68,47.5
1268.42,53.4375
1263.16,47.8125
1257.89,48.75
1252.63,55.625
1247.37,60.625
1242.11,70.9375
1236.84,77.1875
1231.58,79.0625
1226.32,79.375
1221.05,69.0625
1215.79,67.5
1210.53,73.125
1205.26,74.6875
1200.0,81.25
1194.74,83.125
1189.47,73.4375
1184.21,70.0
1178.95,73.75
1173.68,82.5
1168.42,80.0
1163.16,69.375
1157.89,65.0
1152.63,46.5625
1147.37,29.375
1142.11,29.375
1136.84,40.9375
1131.58,68.4375
1126.32,59.6875
1121.05,58.4375
1115.79,62.8125
1110.53,70.9375
1105.26,59.375
1100.0,59.375
1094.74,61.875
1089.47,74.6875
1084.21,62.8125
1078.95,59.0625
1073.68,70.625
1068.42,75.3125
1063.16,63.75
1057.89,65.0
1052.63,72.5
1047.37,78.4375
1042.11,50.0
1036.84,41.875
1031.58,61.25
1026.32,81.5625
1021.05,87.8125
1015.79,90.0
1010.53,90.625
1005.26,91.25
1000.0,91.5625
994.737,90.0
989.474,83.75
984.211,85.0
978.947,91.875
973.684,82.1875
968.421,82.5
963.158,92.1875
957.895,89.375
952.632,78.75
947.368,81.875
942.105,91.875
936.842,93.4375
931.579,94.0625
926.316,94.0625
921.053,93.75
915.789,92.8125
910.526,86.25
905.263,73.125
900.0,71.25
894.737,78.4375
889.474,90.625
884.211,92.5
878.947,91.875
873.684,85.3125
868.421,82.5
863.158,85.625
857.895,91.25
852.632,90.625
847.368,89.0625
842.105,88.125
836.842,88.4375
831.579,89.6875
826.316,91.875
821.053,94.0625
815.789,91.25
810.526,90.625
805.263,82.8125
800.0,80.625
794.737,90.3125
789.474,93.4375
784.211,93.75
778.947,93.75
773.684,93.4375
768.421,92.8125
763.158,91.25
757.895,90.625
752.632,85.9375
747.368,85.9375
742.105,86.875
736.842,85.0
731.579,78.125
726.316,77.8125
721.053,80.3125
715.789,79.0625
710.526,80.9375
705.263,76.5625
700,73.125
694.737,73.125
689.474,73.75
684.211,60.625
678.947,59.375
673.684,60.3125
668.421,61.25
663.158,62.5
657.895,64.0625
652.632,66.5625
647.368,68.4375
642.105,69.375
636.842,70.0
631.579,70.625
626.316,71.25
621.053,72.5
615.789,75.9375
610.526,80.0
605.263,82.5
600,84.0625
594.737,85.625
589.474,86.25
584.211,86.5625
578.947,86.5625
573.684,86.5625
568.421,86.5625
563.158,86.5625
557.895,86.5625
552.632,86.5625
547.368,86.25
542.105,86.25
536.842,84.375
531.579,83.125
526.316,82.5
521.053,82.1875
515.789,82.5
510.526,83.4375
505.263,84.6875
500,84.0625
494.737,83.125
489.474,82.1875
484.211,81.5625
478.947,81.25
473.684,81.25
468.421,81.875
463.158,82.5
457.895,82.8125
452.632,82.5
447.368,81.5625
442.105,80.3125
436.842,78.75
431.579,76.875
426.316,75.0
421.053,73.75
415.789,72.1875
410.526,70.9375
405.263,70.3125
400.0,69.6875