File: data/public/sdbs/processed/samples/methyl 3,3-dimethyl-7-oxo-6-phenoxyacetamido-4-thia-1-azabicyclo[3.2.0]heptane-2-carboxylate 4-oxide.csv
Wavenumber,Intensity
4000.0,0.0
3994.74,91.25
3989.47,91.25
3984.21,91.25
3978.95,91.25
3973.68,91.25
3968.42,91.25
3963.16,90.9375
3957.89,90.9375
3952.63,90.9375
3947.37,90.9375
3942.11,90.9375
3936.84,90.9375
3931.58,90.9375
3926.32,90.9375
3921.05,90.9375
3915.79,90.9375
3910.53,90.9375
3905.26,90.625
3900.0,90.625
3894.74,90.625
3889.47,90.625
3884.21,90.3125
3878.95,90.3125
3873.68,90.3125
3868.42,90.3125
3863.16,90.3125
3857.89,90.3125
3852.63,90.3125
3847.37,90.625
3842.11,90.625
3836.84,90.625
3831.58,90.3125
3826.32,90.3125
3821.05,90.3125
3815.79,90.3125
3810.53,90.3125
3805.26,90.3125
3800.0,90.3125
3794.74,90.3125
3789.47,90.3125
3784.21,90.3125
3778.95,90.3125
3773.68,90.3125
3768.42,90.3125
3763.16,90.3125
3757.89,90.3125
3752.63,90.0
3747.37,90.0
3742.11,89.6875
3736.84,89.375
3731.58,89.375
3726.32,89.375
3721.05,89.375
3715.79,89.6875
3710.53,89.6875
3705.26,89.6875
3700.0,89.6875
3694.74,90.0
3689.47,90.0
3684.21,90.0
3678.95,90.0
3673.68,90.0
3668.42,90.0
3663.16,90.0
3657.89,89.6875
3652.63,89.375
3647.37,89.0625
3642.11,88.75
3636.84,88.75
3631.58,88.75
3626.32,88.75
3621.05,88.75
3615.79,88.75
3610.53,88.4375
3605.26,88.4375
3600.0,88.4375
3594.74,88.125
3589.47,87.8125
3584.21,87.5
3578.95,87.5
3573.68,87.5
3568.42,87.1875
3563.16,86.5625
3557.89,80.625
3552.63,67.1875
3547.37,72.8125
3542.11,81.5625
3536.84,84.0625
3531.58,85.0
3526.32,85.3125
3521.05,85.3125
3515.79,85.3125
3510.53,85.3125
3505.26,85.3125
3500.0,85.0
3494.74,85.0
3489.47,84.6875
3484.21,84.6875
3478.95,84.6875
3473.68,84.6875
3468.42,84.6875
3463.16,84.6875
3457.89,84.6875
3452.63,84.375
3447.37,84.375
3442.11,84.0625
3436.84,84.375
3431.58,84.375
3426.32,84.375
3421.05,84.6875
3415.79,85.0
3410.53,85.0
3405.26,85.3125
3400.0,85.3125
3394.74,85.9375
3389.47,86.25
3384.21,86.5625
3378.95,86.875
3373.68,86.875
3368.42,86.5625
3363.16,86.25
3357.89,86.25
3352.63,85.9375
3347.37,85.9375
3342.11,85.625
3336.84,84.375
3331.58,83.125
3326.32,83.125
3321.05,81.875
3315.79,79.6875
3310.53,77.8125
3305.26,73.4375
3300.0,66.875
3294.74,55.9375
3289.47,40.625
3284.21,22.5
3278.95,14.6875
3273.68,13.4375
3268.42,14.0625
3263.16,9.0625
3257.89,5.3125
3252.63,4.6875
3247.37,5.3125
3242.11,9.6875
3236.84,14.6875
3231.58,19.6875
3226.32,25.3125
3221.05,27.5
3215.79,23.75
3210.53,19.0625
3205.26,14.0625
3200.0,14.375
3194.74,30.0
3189.47,54.375
3184.21,67.8125
3178.95,75.625
3173.68,79.375
3168.42,82.1875
3163.16,83.75
3157.89,85.0
3152.63,86.25
3147.37,87.5
3142.11,87.8125
3136.84,88.125
3131.58,88.125
3126.32,87.8125
3121.05,87.5
3115.79,87.5
3110.53,87.5
3105.26,87.5
3100.0,87.8125
3094.74,87.8125
3089.47,87.5
3084.21,87.5
3078.95,87.5
3073.68,87.8125
3068.42,88.125
3063.16,88.4375
3057.89,88.75
3052.63,88.75
3047.37,89.0625
3042.11,89.0625
3036.84,89.0625
3031.58,89.0625
3026.32,89.375
3021.05,89.375
3015.79,89.6875
3010.53,89.6875
3005.26,90.0
3000.0,90.625
2994.74,90.9375
2989.47,90.9375
2984.21,91.25
2978.95,91.25
2973.68,91.25
2968.42,91.5625
2963.16,91.5625
2957.89,91.5625
2952.63,91.875
2947.37,91.875
2942.11,91.875
2936.84,91.875
2931.58,91.875
2926.32,91.875
2921.05,91.875
2915.79,91.875
2910.53,91.875
2905.26,91.875
2900.0,91.875
2894.74,91.875
2889.47,91.875
2884.21,91.875
2878.95,91.875
2873.68,92.1875
2868.42,92.1875
2863.16,92.1875
2857.89,92.1875
2852.63,92.1875
2847.37,92.1875
2842.11,92.1875
2836.84,92.1875
2831.58,92.1875
2826.32,92.1875
2821.05,92.1875
2815.79,92.1875
2810.53,92.5
2805.26,92.5
2800.0,92.5
2794.74,92.8125
2789.47,92.8125
2784.21,92.8125
2778.95,92.8125
2773.68,92.8125
2768.42,92.8125
2763.16,92.8125
2757.89,93.125
2752.63,93.125
2747.37,93.125
2742.11,93.125
2736.84,93.125
2731.58,93.4375
2726.32,93.4375
2721.05,93.4375
2715.79,93.4375
2710.53,93.4375
2705.26,93.4375
2700.0,93.4375
2694.74,93.4375
2689.47,93.75
2684.21,93.75
2678.95,93.75
2673.68,93.75
2668.42,93.75
2663.16,93.75
2657.89,94.0625
2652.63,94.0625
2647.37,94.0625
2642.11,94.0625
2636.84,93.75
2631.58,93.75
2626.32,93.75
2621.05,94.0625
2615.79,94.0625
2610.53,94.0625
2605.26,94.0625
2600.0,94.0625
2594.74,94.0625
2589.47,94.375
2584.21,94.375
2578.95,94.375
2573.68,94.375
2568.42,94.375
2563.16,94.6875
2557.89,94.6875
2552.63,94.6875
2547.37,94.6875
2542.11,94.6875
2536.84,94.6875
2531.58,94.6875
2526.32,95.0
2521.05,95.0
2515.79,95.0
2510.53,95.0
2505.26,95.0
2500.0,94.6875
2494.74,94.6875
2489.47,94.6875
2484.21,94.6875
2478.95,94.6875
2473.68,94.6875
2468.42,94.6875
2463.16,94.6875
2457.89,94.6875
2452.63,94.6875
2447.37,94.6875
2442.11,94.6875
2436.84,94.6875
2431.58,94.6875
2426.32,94.6875
2421.05,94.6875
2415.79,94.375
2410.53,94.375
2405.26,94.375
2400.0,94.375
2394.74,94.0625
2389.47,93.4375
2384.21,93.125
2378.95,92.5
2373.68,91.875
2368.42,90.625
2363.16,88.4375
2357.89,84.0625
2352.63,76.875
2347.37,69.0625
2342.11,65.0
2336.84,63.4375
2331.58,64.0625
2326.32,73.75
2321.05,81.875
2315.79,86.5625
2310.53,88.4375
2305.26,90.3125
2300.0,91.875
2294.74,92.1875
2289.47,92.8125
2284.21,92.8125
2278.95,91.5625
2273.68,90.625
2268.42,87.8125
2263.16,75.9375
2257.89,66.25
2252.63,68.75
2247.37,76.875
2242.11,77.1875
2236.84,83.75
2231.58,89.6875
2226.32,90.625
2221.05,89.375
2215.79,85.3125
2210.53,75.625
2205.26,59.0625
2200.0,57.8125
2194.74,63.125
2189.47,76.5625
2184.21,81.5625
2178.95,85.625
2173.68,88.125
2168.42,89.6875
2163.16,90.625
2157.89,91.5625
2152.63,92.1875
2147.37,92.5
2142.11,92.8125
2136.84,93.125
2131.58,93.4375
2126.32,93.4375
2121.05,93.4375
2115.79,93.4375
2110.53,93.75
2105.26,93.75
2100.0,93.75
2094.74,94.0625
2089.47,94.375
2084.21,94.375
2078.95,94.375
2073.68,94.375
2068.42,93.75
2063.16,91.5625
2057.89,87.1875
2052.63,87.5
2047.37,89.6875
2042.11,88.75
2036.84,90.0
2031.58,92.1875
2026.32,92.8125
2021.05,93.125
2015.79,93.4375
2010.53,93.4375
2005.26,93.125
2000,93.125
1994.74,92.5
1989.47,92.1875
1984.21,91.25
1978.95,89.375
1973.68,87.1875
1968.42,81.875
1963.16,70.0
1957.89,62.5
1952.63,62.8125
1947.37,71.25
1942.11,80.3125
1936.84,85.625
1931.58,87.8125
1926.32,88.75
1921.05,86.25
1915.79,72.5
1910.53,69.375
1905.26,81.5625
1900.0,84.6875
1894.74,83.4375
1889.47,79.6875
1884.21,72.1875
1878.95,60.3125
1873.68,50.625
1868.42,50.3125
1863.16,50.3125
1857.89,50.9375
1852.63,52.8125
1847.37,59.6875
1842.11,65.625
1836.84,70.625
1831.58,72.1875
1826.32,74.375
1821.05,83.4375
1815.79,87.8125
1810.53,89.6875
1805.26,90.9375
1800.0,91.875
1794.74,91.875
1789.47,92.1875
1784.21,91.875
1778.95,90.0
1773.68,88.125
1768.42,86.875
1763.16,80.3125
1757.89,75.0
1752.63,66.875
1747.37,64.0625
1742.11,64.375
1736.84,72.1875
1731.58,77.5
1726.32,81.25
1721.05,85.9375
1715.79,87.1875
1710.53,87.8125
1705.26,88.4375
1700.0,88.75
1694.74,89.0625
1689.47,89.375
1684.21,89.6875
1678.95,90.0
1673.68,88.4375
1668.42,83.4375
1663.16,82.8125
1657.89,84.6875
1652.63,83.75
1647.37,82.8125
1642.11,79.0625
1636.84,77.5
1631.58,77.1875
1626.32,79.0625
1621.05,81.875
1615.79,84.6875
1610.53,86.5625
1605.26,87.1875
1600.0,88.4375
1594.74,90.3125
1589.47,90.9375
1584.21,90.9375
1578.95,90.3125
1573.68,88.75
1568.42,86.875
1563.16,82.8125
1557.89,75.625
1552.63,74.0625
1547.37,74.6875
1542.11,71.25
1536.84,68.125
1531.58,68.125
1526.32,68.4375
1521.05,67.8125
1515.79,63.125
1510.53,65.625
1505.26,76.875
1500.0,83.125
1494.74,84.0625
1489.47,85.0
1484.21,86.25
1478.95,87.1875
1473.68,85.3125
1468.42,85.625
1463.16,84.0625
1457.89,82.8125
1452.63,82.8125
1447.37,85.625
1442.11,83.75
1436.84,83.125
1431.58,87.8125
1426.32,89.6875
1421.05,89.375
1415.79,89.0625
1410.53,89.375
1405.26,90.9375
1400.0,92.1875
1394.74,92.8125
1389.47,92.8125
1384.21,92.8125
1378.95,93.125
1373.68,93.125
1368.42,93.125
1363.16,92.8125
1357.89,91.875
1352.63,89.6875
1347.37,85.9375
1342.11,85.625
1336.84,85.3125
1331.58,85.625
1326.32,85.625
1321.05,85.3125
1315.79,86.5625
1310.53,89.0625
1305.26,90.625
1300.0,91.25
1294.74,89.375
1289.47,82.1875
1284.21,77.1875
1278.95,77.5
1273.68,82.8125
1268.42,80.625
1263.16,83.75
1257.89,88.125
1252.63,90.0
1247.37,90.9375
1242.11,91.875
1236.84,92.1875
1231.58,92.8125
1226.32,93.125
1221.05,93.4375
1215.79,93.4375
1210.53,92.1875
1205.26,86.25
1200.0,84.0625
1194.74,86.5625
1189.47,90.9375
1184.21,92.1875
1178.95,92.1875
1173.68,92.1875
1168.42,91.875
1163.16,91.5625
1157.89,91.25
1152.63,91.25
1147.37,91.875
1142.11,92.1875
1136.84,92.5
1131.58,92.8125
1126.32,92.8125
1121.05,93.125
1115.79,93.125
1110.53,93.125
1105.26,93.4375
1100.0,93.4375
1094.74,93.4375
1089.47,93.4375
1084.21,93.4375
1078.95,93.125
1073.68,93.125
1068.42,93.125
1063.16,92.8125
1057.89,93.125
1052.63,93.125
1047.37,93.125
1042.11,93.125
1036.84,93.125
1031.58,93.4375
1026.32,93.125
1021.05,93.125
1015.79,93.125
1010.53,93.125
1005.26,93.125
1000.0,93.75
994.737,94.0625
989.474,94.0625
984.211,94.375
978.947,94.375
973.684,94.375
968.421,94.375
963.158,94.375
957.895,94.375
952.632,94.375
947.368,94.6875
942.105,94.6875
936.842,93.4375
931.579,86.875
926.316,86.5625
921.053,89.6875
915.789,90.625
910.526,91.875
905.263,93.125
900.0,93.4375
894.737,93.4375
889.474,92.8125
884.211,91.5625
878.947,89.375
873.684,67.8125
868.421,67.5
863.158,86.5625
857.895,89.0625
852.632,89.0625
847.368,87.5
842.105,86.25
836.842,86.25
831.579,87.8125
826.316,89.6875
821.053,90.9375
815.789,92.5
810.526,92.8125
805.263,92.5
800.0,91.875
794.737,87.5
789.474,81.875
784.211,90.0
778.947,93.75
773.684,94.0625
768.421,93.75
763.158,93.4375
757.895,92.8125
752.632,92.1875
747.368,91.25
742.105,90.0
736.842,89.0625
731.579,88.75
726.316,88.75
721.053,89.6875
715.789,90.9375
710.526,92.1875
705.263,93.125
700,93.4375
694.737,93.75
689.474,94.375
684.211,94.0625
678.947,94.0625
673.684,93.125
668.421,92.8125
663.158,92.1875
657.895,91.875
652.632,90.9375
647.368,90.3125
642.105,89.6875
636.842,88.75
631.579,88.75
626.316,88.75
621.053,88.75
615.789,89.0625
610.526,89.375
605.263,89.6875
600,90.0
594.737,90.625
589.474,91.25
584.211,91.875
578.947,92.1875
573.684,92.8125
568.421,92.8125
563.158,92.5
557.895,92.1875
552.632,91.5625
547.368,90.9375
542.105,90.625
536.842,90.3125
531.579,90.0
526.316,90.0
521.053,89.6875
515.789,89.375
510.526,89.375
505.263,89.6875
500,89.6875
494.737,90.0
489.474,90.0
484.211,89.6875
478.947,89.0625
473.684,88.125
468.421,87.5
463.158,86.5625
457.895,85.3125
452.632,83.125
447.368,80.3125
442.105,77.1875
436.842,73.125
431.579,69.375
426.316,66.25
421.053,64.375
415.789,62.5
410.526,61.5625
405.263,60.9375
400.0,60.625