File: data/public/sdbs/processed/samples/p-(ethoxycarbonyloxy)benzoic acid.csv
Wavenumber,Intensity
4000.0,0.0
3994.74,81.5625
3989.47,81.25
3984.21,81.25
3978.95,81.25
3973.68,81.5625
3968.42,81.875
3963.16,82.1875
3957.89,82.1875
3952.63,82.5
3947.37,82.5
3942.11,82.5
3936.84,82.5
3931.58,82.5
3926.32,82.5
3921.05,82.5
3915.79,82.5
3910.53,82.5
3905.26,82.8125
3900.0,83.125
3894.74,83.4375
3889.47,83.4375
3884.21,83.75
3878.95,83.75
3873.68,84.0625
3868.42,84.375
3863.16,84.375
3857.89,84.0625
3852.63,83.75
3847.37,83.75
3842.11,84.0625
3836.84,84.375
3831.58,85.0
3826.32,85.3125
3821.05,85.0
3815.79,85.0
3810.53,85.3125
3805.26,85.3125
3800.0,85.625
3794.74,86.25
3789.47,86.5625
3784.21,86.5625
3778.95,86.5625
3773.68,86.5625
3768.42,86.5625
3763.16,86.5625
3757.89,86.875
3752.63,86.875
3747.37,86.875
3742.11,86.5625
3736.84,86.5625
3731.58,86.5625
3726.32,86.5625
3721.05,86.5625
3715.79,86.875
3710.53,87.1875
3705.26,86.875
3700.0,86.5625
3694.74,86.25
3689.47,86.25
3684.21,86.25
3678.95,85.9375
3673.68,85.0
3668.42,84.0625
3663.16,83.75
3657.89,83.75
3652.63,84.375
3647.37,85.3125
3642.11,86.25
3636.84,86.875
3631.58,87.1875
3626.32,87.1875
3621.05,87.1875
3615.79,87.1875
3610.53,87.1875
3605.26,87.1875
3600.0,86.875
3594.74,86.875
3589.47,86.25
3584.21,85.9375
3578.95,85.9375
3573.68,85.9375
3568.42,85.9375
3563.16,85.9375
3557.89,85.9375
3552.63,85.9375
3547.37,85.9375
3542.11,85.9375
3536.84,85.9375
3531.58,85.625
3526.32,85.3125
3521.05,85.0
3515.79,84.6875
3510.53,84.375
3505.26,83.75
3500.0,83.4375
3494.74,83.125
3489.47,82.5
3484.21,81.875
3478.95,81.5625
3473.68,80.9375
3468.42,80.0
3463.16,79.0625
3457.89,78.4375
3452.63,77.5
3447.37,76.5625
3442.11,75.625
3436.84,75.0
3431.58,74.6875
3426.32,73.75
3421.05,72.8125
3415.79,72.1875
3410.53,70.9375
3405.26,70.0
3400.0,67.5
3394.74,62.8125
3389.47,62.1875
3384.21,60.0
3378.95,60.625
3373.68,61.5625
3368.42,58.75
3363.16,55.3125
3357.89,55.9375
3352.63,58.125
3347.37,58.4375
3342.11,59.0625
3336.84,58.125
3331.58,56.5625
3326.32,54.6875
3321.05,51.5625
3315.79,45
3310.53,40.9375
3305.26,42.1875
3300.0,36.25
3294.74,29.0625
3289.47,28.4375
3284.21,18.75
3278.95,13.4375
3273.68,12.5
3268.42,13.125
3263.16,9.375
3257.89,5.3125
3252.63,4.6875
3247.37,5.0
3242.11,8.75
3236.84,12.8125
3231.58,16.875
3226.32,20.3125
3221.05,22.5
3215.79,20.0
3210.53,16.875
3205.26,12.8125
3200.0,13.125
3194.74,22.5
3189.47,37.1875
3184.21,45
3178.95,50.625
3173.68,53.125
3168.42,55.625
3163.16,57.5
3157.89,59.6875
3152.63,62.1875
3147.37,63.75
3142.11,64.6875
3136.84,65.625
3131.58,66.25
3126.32,65.9375
3121.05,65.625
3115.79,65.625
3110.53,65.625
3105.26,65.9375
3100.0,64.6875
3094.74,62.5
3089.47,60.625
3084.21,59.0625
3078.95,58.4375
3073.68,58.4375
3068.42,59.375
3063.16,60.9375
3057.89,61.5625
3052.63,62.5
3047.37,63.4375
3042.11,64.0625
3036.84,64.6875
3031.58,64.6875
3026.32,65.0
3021.05,65.3125
3015.79,65.3125
3010.53,64.0625
3005.26,63.125
3000.0,62.8125
2994.74,62.8125
2989.47,63.125
2984.21,63.4375
2978.95,64.0625
2973.68,66.25
2968.42,67.5
2963.16,68.75
2957.89,70.625
2952.63,71.875
2947.37,72.8125
2942.11,73.75
2936.84,75.0
2931.58,75.625
2926.32,76.5625
2921.05,77.1875
2915.79,77.8125
2910.53,78.4375
2905.26,78.75
2900.0,79.375
2894.74,79.6875
2889.47,80.3125
2884.21,80.9375
2878.95,81.875
2873.68,82.5
2868.42,83.125
2863.16,83.75
2857.89,84.375
2852.63,85.0
2847.37,85.625
2842.11,86.25
2836.84,86.875
2831.58,87.5
2826.32,87.5
2821.05,87.8125
2815.79,87.8125
2810.53,88.125
2805.26,88.125
2800.0,88.125
2794.74,88.125
2789.47,88.4375
2784.21,88.75
2778.95,89.375
2773.68,89.6875
2768.42,90.0
2763.16,90.3125
2757.89,90.3125
2752.63,90.9375
2747.37,91.25
2742.11,91.5625
2736.84,91.5625
2731.58,91.875
2726.32,92.1875
2721.05,92.1875
2715.79,92.8125
2710.53,93.125
2705.26,93.75
2700.0,93.4375
2694.74,93.4375
2689.47,93.4375
2684.21,93.4375
2678.95,93.75
2673.68,93.75
2668.42,93.75
2663.16,93.4375
2657.89,93.125
2652.63,93.125
2647.37,93.125
2642.11,93.4375
2636.84,93.75
2631.58,94.0625
2626.32,94.0625
2621.05,94.375
2615.79,94.375
2610.53,94.6875
2605.26,94.6875
2600.0,95.0
2594.74,94.6875
2589.47,94.6875
2584.21,94.6875
2578.95,94.6875
2573.68,94.6875
2568.42,94.375
2563.16,94.375
2557.89,94.375
2552.63,94.375
2547.37,94.375
2542.11,94.0625
2536.84,93.75
2531.58,92.1875
2526.32,90.0
2521.05,90.0
2515.79,91.25
2510.53,91.25
2505.26,91.25
2500.0,91.25
2494.74,91.5625
2489.47,91.5625
2484.21,91.5625
2478.95,91.875
2473.68,91.875
2468.42,91.875
2463.16,91.5625
2457.89,91.5625
2452.63,91.5625
2447.37,91.25
2442.11,90.9375
2436.84,90.625
2431.58,90.3125
2426.32,90.0
2421.05,89.6875
2415.79,89.0625
2410.53,88.75
2405.26,88.4375
2400.0,88.125
2394.74,88.125
2389.47,87.5
2384.21,87.1875
2378.95,86.875
2373.68,86.25
2368.42,85.625
2363.16,84.6875
2357.89,83.4375
2352.63,82.1875
2347.37,80.625
2342.11,78.75
2336.84,77.1875
2331.58,74.375
2326.32,70.9375
2321.05,67.5
2315.79,62.5
2310.53,54.6875
2305.26,44.0625
2300.0,28.75
2294.74,15.625
2289.47,6.875
2284.21,4.6875
2278.95,4.6875
2273.68,5.9375
2268.42,12.1875
2263.16,28.75
2257.89,48.75
2252.63,63.125
2247.37,71.25
2242.11,75.625
2236.84,80.9375
2231.58,79.375
2226.32,66.5625
2221.05,69.6875
2215.79,72.1875
2210.53,63.125
2205.26,46.875
2200.0,27.5
2194.74,15.625
2189.47,11.5625
2184.21,10.3125
2178.95,10.3125
2173.68,13.125
2168.42,18.125
2163.16,24.375
2157.89,33.4375
2152.63,42.1875
2147.37,50.3125
2142.11,58.125
2136.84,65.3125
2131.58,70.9375
2126.32,73.75
2121.05,75.3125
2115.79,78.125
2110.53,81.5625
2105.26,83.4375
2100.0,85.0
2094.74,86.25
2089.47,85.9375
2084.21,83.4375
2078.95,71.875
2073.68,41.25
2068.42,35.0
2063.16,43.4375
2057.89,61.5625
2052.63,66.875
2047.37,60.0
2042.11,64.375
2036.84,76.25
2031.58,83.125
2026.32,86.5625
2021.05,88.75
2015.79,89.0625
2010.53,89.0625
2005.26,88.4375
2000,88.125
1994.74,87.5
1989.47,87.1875
1984.21,87.5
1978.95,88.75
1973.68,89.6875
1968.42,90.625
1963.16,91.5625
1957.89,92.1875
1952.63,92.5
1947.37,91.5625
1942.11,88.75
1936.84,83.125
1931.58,74.6875
1926.32,75.625
1921.05,82.5
1915.79,88.125
1910.53,89.6875
1905.26,90.625
1900.0,88.4375
1894.74,81.5625
1889.47,64.0625
1884.21,64.375
1878.95,64.0625
1873.68,53.4375
1868.42,49.0625
1863.16,45.3125
1857.89,47.5
1852.63,54.0625
1847.37,59.0625
1842.11,55.9375
1836.84,47.1875
1831.58,43.75
1826.32,37.5
1821.05,34.0625
1815.79,34.0625
1810.53,40.0
1805.26,47.1875
1800.0,57.5
1794.74,62.5
1789.47,64.0625
1784.21,67.5
1778.95,70.9375
1773.68,76.5625
1768.42,76.875
1763.16,69.6875
1757.89,63.125
1752.63,53.75
1747.37,41.5625
1742.11,30.3125
1736.84,34.6875
1731.58,65.3125
1726.32,74.0625
1721.05,79.0625
1715.79,77.5
1710.53,74.375
1705.26,69.375
1700.0,65.9375
1694.74,63.75
1689.47,59.375
1684.21,53.125
1678.95,42.5
1673.68,33.125
1668.42,31.5625
1663.16,32.1875
1657.89,31.875
1652.63,24.0625
1647.37,18.4375
1642.11,15.9375
1636.84,15.9375
1631.58,15.3125
1626.32,14.0625
1621.05,11.875
1615.79,11.25
1610.53,11.25
1605.26,10.3125
1600.0,10.3125
1594.74,10.9375
1589.47,14.0625
1584.21,18.75
1578.95,23.125
1573.68,28.125
1568.42,31.875
1563.16,33.75
1557.89,34.0625
1552.63,35.0
1547.37,33.75
1542.11,27.1875
1536.84,27.1875
1531.58,34.375
1526.32,41.875
1521.05,47.1875
1515.79,51.25
1510.53,55.0
1505.26,59.0625
1500.0,63.4375
1494.74,66.5625
1489.47,69.375
1484.21,73.75
1478.95,76.25
1473.68,78.4375
1468.42,80.625
1463.16,76.875
1457.89,47.1875
1452.63,19.0625
1447.37,18.4375
1442.11,32.1875
1436.84,45
1431.58,52.5
1426.32,61.5625
1421.05,67.8125
1415.79,70.625
1410.53,68.125
1405.26,49.375
1400.0,47.1875
1394.74,50.625
1389.47,49.6875
1384.21,61.875
1378.95,51.875
1373.68,51.25
1368.42,63.125
1363.16,70.0
1357.89,71.875
1352.63,73.4375
1347.37,75.9375
1342.11,79.0625
1336.84,80.9375
1331.58,80.9375
1326.32,77.1875
1321.05,67.5
1315.79,53.125
1310.53,47.5
1305.26,48.125
1300.0,55.9375
1294.74,62.5
1289.47,67.5
1284.21,71.25
1278.95,73.75
1273.68,75.625
1268.42,76.875
1263.16,78.4375
1257.89,80.625
1252.63,75.9375
1247.37,42.1875
1242.11,47.1875
1236.84,51.25
1231.58,35.3125
1226.32,35.625
1221.05,50.625
1215.79,63.4375
1210.53,70.625
1205.26,73.75
1200.0,76.875
1194.74,78.4375
1189.47,79.375
1184.21,80.0
1178.95,79.6875
1173.68,75.625
1168.42,75.0
1163.16,75.0
1157.89,73.4375
1152.63,70.3125
1147.37,65.9375
1142.11,61.875
1136.84,56.875
1131.58,53.75
1126.32,52.8125
1121.05,52.8125
1115.79,53.4375
1110.53,56.5625
1105.26,56.5625
1100.0,44.6875
1094.74,44.6875
1089.47,54.6875
1084.21,67.5
1078.95,72.8125
1073.68,75.9375
1068.42,78.4375
1063.16,80.3125
1057.89,81.25
1052.63,81.875
1047.37,81.5625
1042.11,79.375
1036.84,61.875
1031.58,45.3125
1026.32,54.0625
1021.05,74.0625
1015.79,77.1875
1010.53,69.375
1005.26,59.375
1000.0,61.5625
994.737,73.75
989.474,77.8125
984.211,80.3125
978.947,82.1875
973.684,83.125
968.421,84.6875
963.158,85.9375
957.895,87.1875
952.632,88.4375
947.368,88.4375
942.105,86.875
936.842,80.0
931.579,72.1875
926.316,62.8125
921.053,33.4375
915.789,30.625
910.526,48.4375
905.263,62.8125
900.0,82.1875
894.737,87.1875
889.474,89.6875
884.211,90.0
878.947,89.0625
873.684,87.1875
868.421,79.375
863.158,46.5625
857.895,43.4375
852.632,61.875
847.368,79.6875
842.105,82.5
836.842,83.4375
831.579,86.25
826.316,90.625
821.053,92.5
815.789,93.125
810.526,93.4375
805.263,94.0625
800.0,93.4375
794.737,84.375
789.474,75.0
784.211,83.75
778.947,93.4375
773.684,94.6875
768.421,93.125
763.158,91.5625
757.895,90.3125
752.632,82.8125
747.368,47.5
742.105,49.375
736.842,80.0
731.579,87.8125
726.316,88.4375
721.053,88.4375
715.789,78.4375
710.526,82.1875
705.263,91.25
700,92.5
694.737,92.5
689.474,92.5
684.211,92.1875
678.947,91.875
673.684,91.5625
668.421,91.5625
663.158,91.25
657.895,91.25
652.632,90.9375
647.368,90.9375
642.105,90.3125
636.842,89.6875
631.579,88.4375
626.316,86.25
621.053,83.125
615.789,77.5
610.526,64.6875
605.263,55.625
600,55.625
594.737,63.4375
589.474,75.9375
584.211,83.75
578.947,85.9375
573.684,87.5
568.421,89.0625
563.158,89.0625
557.895,87.8125
552.632,85.0
547.368,72.1875
542.105,53.75
536.842,55.625
531.579,82.1875
526.316,87.5
521.053,88.125
515.789,89.375
510.526,88.4375
505.263,87.8125
500,87.1875
494.737,86.875
489.474,86.5625
484.211,86.25
478.947,85.9375
473.684,85.625
468.421,85.0
463.158,84.6875
457.895,83.75
452.632,82.8125
447.368,81.875
442.105,80.9375
436.842,79.0625
431.579,76.5625
426.316,72.5
421.053,68.4375
415.789,63.4375
410.526,59.0625
405.263,55.9375
400.0,54.375