File: data/public/sdbs/processed/samples/p-ethoxyphenyl p-(methoxycarbonyloxy)benzoate.csv
Wavenumber,Intensity
4000.0,0.0
3994.74,90.3125
3989.47,90.0
3984.21,89.6875
3978.95,89.0625
3973.68,89.0625
3968.42,89.0625
3963.16,89.0625
3957.89,89.0625
3952.63,89.375
3947.37,89.6875
3942.11,90.0
3936.84,90.0
3931.58,90.0
3926.32,89.375
3921.05,88.75
3915.79,88.75
3910.53,88.75
3905.26,88.75
3900.0,88.75
3894.74,89.0625
3889.47,89.375
3884.21,90.0
3878.95,90.0
3873.68,89.6875
3868.42,89.375
3863.16,89.375
3857.89,89.375
3852.63,89.6875
3847.37,89.6875
3842.11,90.0
3836.84,90.3125
3831.58,90.3125
3826.32,90.0
3821.05,89.6875
3815.79,89.6875
3810.53,89.6875
3805.26,89.6875
3800.0,90.3125
3794.74,90.3125
3789.47,90.3125
3784.21,89.6875
3778.95,89.6875
3773.68,89.6875
3768.42,89.6875
3763.16,90.0
3757.89,90.0
3752.63,89.6875
3747.37,89.375
3742.11,89.375
3736.84,89.375
3731.58,89.375
3726.32,89.6875
3721.05,90.0
3715.79,90.3125
3710.53,90.3125
3705.26,90.0
3700.0,89.6875
3694.74,89.6875
3689.47,89.375
3684.21,89.375
3678.95,89.375
3673.68,89.0625
3668.42,89.0625
3663.16,89.0625
3657.89,89.0625
3652.63,89.0625
3647.37,89.0625
3642.11,89.0625
3636.84,89.0625
3631.58,89.0625
3626.32,88.75
3621.05,88.75
3615.79,88.75
3610.53,88.75
3605.26,89.0625
3600.0,89.375
3594.74,89.375
3589.47,89.0625
3584.21,89.0625
3578.95,89.0625
3573.68,89.375
3568.42,89.6875
3563.16,89.6875
3557.89,89.375
3552.63,89.375
3547.37,89.0625
3542.11,89.0625
3536.84,89.375
3531.58,89.375
3526.32,89.375
3521.05,89.375
3515.79,89.375
3510.53,89.375
3505.26,89.375
3500.0,89.0625
3494.74,89.0625
3489.47,89.0625
3484.21,89.375
3478.95,89.0625
3473.68,88.75
3468.42,88.4375
3463.16,88.125
3457.89,88.125
3452.63,87.8125
3447.37,87.8125
3442.11,87.8125
3436.84,87.5
3431.58,87.1875
3426.32,87.1875
3421.05,87.1875
3415.79,87.1875
3410.53,87.5
3405.26,87.1875
3400.0,86.25
3394.74,87.1875
3389.47,87.5
3384.21,85.3125
3378.95,85.3125
3373.68,85.625
3368.42,85.625
3363.16,84.6875
3357.89,83.4375
3352.63,82.5
3347.37,82.5
3342.11,82.5
3336.84,82.1875
3331.58,81.875
3326.32,80.625
3321.05,78.75
3315.79,76.5625
3310.53,72.8125
3305.26,68.125
3300.0,60.3125
3294.74,50.3125
3289.47,32.8125
3284.21,20.625
3278.95,12.8125
3273.68,12.1875
3268.42,13.125
3263.16,8.75
3257.89,5.9375
3252.63,4.6875
3247.37,5.3125
3242.11,9.6875
3236.84,14.375
3231.58,18.125
3226.32,23.125
3221.05,25.9375
3215.79,22.1875
3210.53,17.8125
3205.26,13.125
3200.0,13.75
3194.74,26.25
3189.47,50.0
3184.21,66.25
3178.95,74.375
3173.68,79.6875
3168.42,81.5625
3163.16,84.375
3157.89,85.625
3152.63,87.5
3147.37,88.4375
3142.11,89.0625
3136.84,89.375
3131.58,89.375
3126.32,89.0625
3121.05,88.4375
3115.79,87.5
3110.53,88.125
3105.26,88.125
3100.0,88.4375
3094.74,88.4375
3089.47,88.4375
3084.21,88.4375
3078.95,88.4375
3073.68,88.4375
3068.42,88.75
3063.16,88.75
3057.89,88.75
3052.63,89.375
3047.37,89.375
3042.11,89.6875
3036.84,89.375
3031.58,89.375
3026.32,89.6875
3021.05,90.0
3015.79,90.625
3010.53,90.9375
3005.26,91.25
3000.0,91.5625
2994.74,91.5625
2989.47,91.5625
2984.21,91.875
2978.95,92.1875
2973.68,92.1875
2968.42,92.1875
2963.16,92.1875
2957.89,92.1875
2952.63,92.1875
2947.37,92.5
2942.11,92.5
2936.84,92.5
2931.58,92.5
2926.32,92.5
2921.05,92.8125
2915.79,92.5
2910.53,92.5
2905.26,92.1875
2900.0,92.1875
2894.74,92.5
2889.47,92.8125
2884.21,92.8125
2878.95,92.8125
2873.68,92.8125
2868.42,92.8125
2863.16,92.8125
2857.89,92.8125
2852.63,92.8125
2847.37,92.8125
2842.11,92.8125
2836.84,92.8125
2831.58,92.8125
2826.32,92.8125
2821.05,92.8125
2815.79,93.125
2810.53,93.125
2805.26,93.125
2800.0,93.125
2794.74,93.125
2789.47,93.125
2784.21,93.125
2778.95,93.125
2773.68,93.125
2768.42,93.125
2763.16,93.125
2757.89,93.125
2752.63,93.125
2747.37,93.125
2742.11,93.125
2736.84,93.125
2731.58,93.4375
2726.32,93.4375
2721.05,93.4375
2715.79,93.4375
2710.53,93.4375
2705.26,93.4375
2700.0,93.75
2694.74,93.75
2689.47,93.75
2684.21,93.75
2678.95,93.75
2673.68,93.75
2668.42,93.75
2663.16,94.0625
2657.89,94.0625
2652.63,93.75
2647.37,93.75
2642.11,93.75
2636.84,93.75
2631.58,93.75
2626.32,93.75
2621.05,93.75
2615.79,94.0625
2610.53,94.0625
2605.26,94.0625
2600.0,94.0625
2594.74,94.375
2589.47,94.375
2584.21,94.375
2578.95,94.375
2573.68,94.375
2568.42,94.375
2563.16,94.375
2557.89,94.375
2552.63,94.375
2547.37,94.375
2542.11,94.375
2536.84,94.375
2531.58,94.375
2526.32,94.375
2521.05,94.375
2515.79,94.375
2510.53,94.375
2505.26,94.375
2500.0,94.375
2494.74,94.375
2489.47,94.375
2484.21,94.375
2478.95,94.375
2473.68,94.6875
2468.42,94.6875
2463.16,94.6875
2457.89,94.6875
2452.63,95.0
2447.37,95.0
2442.11,94.6875
2436.84,94.6875
2431.58,94.6875
2426.32,94.6875
2421.05,94.6875
2415.79,94.6875
2410.53,94.6875
2405.26,94.6875
2400.0,94.6875
2394.74,94.6875
2389.47,94.6875
2384.21,94.6875
2378.95,94.6875
2373.68,94.375
2368.42,94.375
2363.16,94.0625
2357.89,94.0625
2352.63,93.75
2347.37,93.4375
2342.11,93.125
2336.84,92.8125
2331.58,92.1875
2326.32,91.875
2321.05,90.625
2315.79,89.0625
2310.53,86.875
2305.26,82.5
2300.0,75.3125
2294.74,68.75
2289.47,56.5625
2284.21,46.875
2278.95,46.875
2273.68,54.0625
2268.42,64.6875
2263.16,72.5
2257.89,69.0625
2252.63,62.5
2247.37,56.5625
2242.11,50.3125
2236.84,50.3125
2231.58,56.875
2226.32,67.5
2221.05,74.0625
2215.79,81.25
2210.53,84.375
2205.26,85.9375
2200.0,86.875
2194.74,87.8125
2189.47,89.0625
2184.21,88.4375
2178.95,88.75
2173.68,90.625
2168.42,91.5625
2163.16,91.875
2157.89,92.1875
2152.63,92.1875
2147.37,92.1875
2142.11,92.5
2136.84,92.5
2131.58,92.8125
2126.32,92.8125
2121.05,92.8125
2115.79,93.125
2110.53,93.4375
2105.26,93.4375
2100.0,93.4375
2094.74,93.125
2089.47,92.8125
2084.21,92.1875
2078.95,89.0625
2073.68,82.8125
2068.42,81.25
2063.16,80.9375
2057.89,82.1875
2052.63,87.1875
2047.37,88.4375
2042.11,91.25
2036.84,92.1875
2031.58,92.8125
2026.32,93.125
2021.05,93.4375
2015.79,93.4375
2010.53,93.4375
2005.26,93.75
2000,93.75
1994.74,93.4375
1989.47,93.4375
1984.21,93.125
1978.95,93.125
1973.68,92.8125
1968.42,92.5
1963.16,91.25
1957.89,89.6875
1952.63,86.25
1947.37,78.75
1942.11,61.875
1936.84,52.8125
1931.58,54.6875
1926.32,61.5625
1921.05,68.4375
1915.79,76.5625
1910.53,81.25
1905.26,84.0625
1900.0,83.4375
1894.74,66.5625
1889.47,59.6875
1884.21,66.25
1878.95,54.6875
1873.68,43.125
1868.42,41.5625
1863.16,41.25
1857.89,41.5625
1852.63,43.125
1847.37,43.4375
1842.11,41.875
1836.84,52.1875
1831.58,57.1875
1826.32,70.9375
1821.05,79.6875
1815.79,85.0
1810.53,86.875
1805.26,85.0
1800.0,84.0625
1794.74,84.6875
1789.47,85.9375
1784.21,86.5625
1778.95,84.0625
1773.68,80.3125
1768.42,76.5625
1763.16,74.375
1757.89,70.0
1752.63,61.25
1747.37,59.375
1742.11,62.5
1736.84,72.5
1731.58,72.8125
1726.32,76.25
1721.05,80.625
1715.79,82.1875
1710.53,82.5
1705.26,82.5
1700.0,82.5
1694.74,82.5
1689.47,82.1875
1684.21,82.1875
1678.95,81.5625
1673.68,80.625
1668.42,79.375
1663.16,76.875
1657.89,74.375
1652.63,72.1875
1647.37,69.0625
1642.11,66.875
1636.84,65.9375
1631.58,64.0625
1626.32,61.875
1621.05,58.125
1615.79,52.8125
1610.53,45.625
1605.26,38.4375
1600.0,32.5
1594.74,31.25
1589.47,31.875
1584.21,35.3125
1578.95,39.6875
1573.68,37.1875
1568.42,37.5
1563.16,40.625
1557.89,45.3125
1552.63,49.375
1547.37,56.25
1542.11,63.125
1536.84,63.75
1531.58,55.9375
1526.32,53.75
1521.05,56.25
1515.79,57.8125
1510.53,48.75
1505.26,39.6875
1500.0,34.6875
1494.74,33.75
1489.47,34.6875
1484.21,39.0625
1478.95,45
1473.68,50.9375
1468.42,56.875
1463.16,62.5
1457.89,57.1875
1452.63,46.25
1447.37,47.8125
1442.11,56.875
1436.84,62.1875
1431.58,65.0
1426.32,69.6875
1421.05,71.25
1415.79,73.75
1410.53,76.25
1405.26,77.5
1400.0,78.75
1394.74,79.6875
1389.47,71.5625
1384.21,65.625
1378.95,70.625
1373.68,76.25
1368.42,77.5
1363.16,80.3125
1357.89,82.1875
1352.63,82.5
1347.37,77.1875
1342.11,69.0625
1336.84,55.625
1331.58,45
1326.32,44.6875
1321.05,48.4375
1315.79,55.625
1310.53,60.3125
1305.26,65.0
1300.0,67.1875
1294.74,67.8125
1289.47,65.625
1284.21,67.5
1278.95,73.75
1273.68,77.1875
1268.42,79.0625
1263.16,80.625
1257.89,81.5625
1252.63,78.75
1247.37,61.25
1242.11,64.0625
1236.84,70.3125
1231.58,75.625
1226.32,78.75
1221.05,80.9375
1215.79,81.875
1210.53,82.8125
1205.26,83.4375
1200.0,83.75
1194.74,83.75
1189.47,84.0625
1184.21,84.0625
1178.95,84.375
1173.68,83.75
1168.42,78.4375
1163.16,81.25
1157.89,83.4375
1152.63,76.875
1147.37,61.875
1142.11,60.9375
1136.84,70.0
1131.58,78.125
1126.32,80.0
1121.05,79.375
1115.79,79.375
1110.53,80.9375
1105.26,83.4375
1100.0,84.6875
1094.74,85.625
1089.47,86.25
1084.21,86.25
1078.95,85.9375
1073.68,85.625
1068.42,84.375
1063.16,81.875
1057.89,72.8125
1052.63,69.375
1047.37,71.25
1042.11,78.125
1036.84,83.4375
1031.58,85.625
1026.32,86.25
1021.05,86.5625
1015.79,86.875
1010.53,87.1875
1005.26,87.1875
1000.0,85.9375
994.737,82.5
989.474,82.1875
984.211,86.25
978.947,87.5
973.684,88.125
968.421,88.125
963.158,87.5
957.895,82.8125
952.632,75.9375
947.368,80.0
942.105,86.875
936.842,86.25
931.579,81.25
926.316,77.1875
921.053,78.125
915.789,77.8125
910.526,76.25
905.263,82.5
900.0,76.25
894.737,79.375
889.474,85.3125
884.211,86.875
878.947,87.5
873.684,87.8125
868.421,87.5
863.158,86.875
857.895,85.9375
852.632,84.0625
847.368,81.25
842.105,77.1875
836.842,72.8125
831.579,67.8125
826.316,73.125
821.053,84.6875
815.789,87.8125
810.526,89.375
805.263,90.625
800.0,90.625
794.737,90.625
789.474,89.6875
784.211,89.375
778.947,91.5625
773.684,92.8125
768.421,91.875
763.158,92.1875
757.895,89.0625
752.632,92.1875
747.368,92.8125
742.105,92.8125
736.842,93.125
731.579,93.4375
726.316,93.125
721.053,92.8125
715.789,92.5
710.526,92.5
705.263,92.5
700,92.5
694.737,92.5
689.474,92.8125
684.211,93.125
678.947,93.4375
673.684,93.75
668.421,93.75
663.158,92.8125
657.895,91.5625
652.632,90.3125
647.368,89.6875
642.105,89.0625
636.842,89.0625
631.579,89.375
626.316,90.0
621.053,90.3125
615.789,91.25
610.526,91.875
605.263,92.8125
600,93.4375
594.737,94.0625
589.474,94.375
584.211,94.375
578.947,92.8125
573.684,86.25
568.421,82.8125
563.158,87.5
557.895,91.5625
552.632,92.1875
547.368,92.1875
542.105,92.1875
536.842,91.875
531.579,91.5625
526.316,91.25
521.053,91.25
515.789,91.25
510.526,90.9375
505.263,90.9375
500,90.9375
494.737,90.9375
489.474,91.25
484.211,91.875
478.947,92.5
473.684,93.125
468.421,94.0625
463.158,94.6875
457.895,94.6875
452.632,93.75
447.368,92.1875
442.105,90.625
436.842,88.4375
431.579,86.25
426.316,84.6875
421.053,83.125
415.789,81.875
410.526,80.9375
405.263,80.3125
400.0,79.6875