File: data/public/sdbs/processed/samples/p-ethoxyphenyl p-(pentyloxycarbonyloxy)benzoate.csv
Wavenumber,Intensity
4000.0,0.0
3994.74,92.1875
3989.47,92.1875
3984.21,92.1875
3978.95,92.1875
3973.68,91.875
3968.42,91.875
3963.16,91.5625
3957.89,91.5625
3952.63,91.5625
3947.37,91.5625
3942.11,91.5625
3936.84,91.5625
3931.58,91.5625
3926.32,91.25
3921.05,90.9375
3915.79,90.9375
3910.53,90.9375
3905.26,91.25
3900.0,91.5625
3894.74,91.5625
3889.47,91.25
3884.21,90.9375
3878.95,90.625
3873.68,90.625
3868.42,90.625
3863.16,90.625
3857.89,90.9375
3852.63,90.9375
3847.37,90.625
3842.11,90.3125
3836.84,90.0
3831.58,90.0
3826.32,90.0
3821.05,90.3125
3815.79,90.0
3810.53,90.0
3805.26,90.0
3800.0,90.0
3794.74,89.6875
3789.47,89.375
3784.21,89.375
3778.95,89.375
3773.68,89.375
3768.42,89.375
3763.16,89.375
3757.89,89.375
3752.63,89.375
3747.37,89.0625
3742.11,88.75
3736.84,88.4375
3731.58,88.4375
3726.32,88.4375
3721.05,88.75
3715.79,88.75
3710.53,88.75
3705.26,88.4375
3700.0,88.125
3694.74,88.125
3689.47,88.125
3684.21,87.8125
3678.95,87.1875
3673.68,86.875
3668.42,86.25
3663.16,85.625
3657.89,85.3125
3652.63,85.3125
3647.37,85.3125
3642.11,85.625
3636.84,85.625
3631.58,85.3125
3626.32,85.0
3621.05,85.0
3615.79,85.0
3610.53,85.3125
3605.26,85.3125
3600.0,85.0
3594.74,84.6875
3589.47,84.375
3584.21,84.375
3578.95,84.375
3573.68,84.6875
3568.42,85.0
3563.16,85.625
3557.89,85.9375
3552.63,85.9375
3547.37,85.9375
3542.11,85.9375
3536.84,85.9375
3531.58,86.25
3526.32,86.25
3521.05,85.9375
3515.79,85.9375
3510.53,85.9375
3505.26,85.9375
3500.0,85.625
3494.74,85.625
3489.47,85.9375
3484.21,85.9375
3478.95,85.625
3473.68,85.625
3468.42,85.3125
3463.16,85.0
3457.89,85.0
3452.63,85.0
3447.37,84.6875
3442.11,84.375
3436.84,84.375
3431.58,84.0625
3426.32,84.0625
3421.05,84.0625
3415.79,83.75
3410.53,83.75
3405.26,83.75
3400.0,83.75
3394.74,83.4375
3389.47,82.1875
3384.21,80.625
3378.95,80.625
3373.68,81.5625
3368.42,80.625
3363.16,78.4375
3357.89,76.875
3352.63,74.0625
3347.37,72.8125
3342.11,75.0
3336.84,78.125
3331.58,79.0625
3326.32,77.8125
3321.05,75.625
3315.79,73.125
3310.53,68.75
3305.26,62.8125
3300.0,53.125
3294.74,45.3125
3289.47,24.6875
3284.21,15.0
3278.95,11.5625
3273.68,11.5625
3268.42,11.5625
3263.16,8.125
3257.89,5.625
3252.63,5.3125
3247.37,6.875
3242.11,13.125
3236.84,18.125
3231.58,23.125
3226.32,29.375
3221.05,28.75
3215.79,25.0
3210.53,20.625
3205.26,19.375
3200.0,20.9375
3194.74,36.5625
3189.47,58.4375
3184.21,71.25
3178.95,77.5
3173.68,80.625
3168.42,82.1875
3163.16,83.75
3157.89,85.625
3152.63,86.5625
3147.37,87.1875
3142.11,87.5
3136.84,87.5
3131.58,87.1875
3126.32,86.875
3121.05,86.5625
3115.79,86.5625
3110.53,86.5625
3105.26,87.1875
3100.0,87.5
3094.74,87.8125
3089.47,87.5
3084.21,87.5
3078.95,87.5
3073.68,87.5
3068.42,87.8125
3063.16,88.125
3057.89,88.4375
3052.63,88.4375
3047.37,88.125
3042.11,87.8125
3036.84,87.8125
3031.58,87.8125
3026.32,88.125
3021.05,88.4375
3015.79,88.75
3010.53,89.0625
3005.26,89.6875
3000.0,90.0
2994.74,90.3125
2989.47,90.3125
2984.21,90.3125
2978.95,90.3125
2973.68,90.3125
2968.42,90.3125
2963.16,90.3125
2957.89,90.3125
2952.63,90.0
2947.37,90.0
2942.11,90.0
2936.84,90.3125
2931.58,90.3125
2926.32,90.3125
2921.05,90.0
2915.79,90.0
2910.53,90.0
2905.26,90.0
2900.0,90.0
2894.74,90.3125
2889.47,90.625
2884.21,90.9375
2878.95,90.9375
2873.68,90.9375
2868.42,90.9375
2863.16,90.9375
2857.89,90.9375
2852.63,90.9375
2847.37,90.9375
2842.11,90.9375
2836.84,90.9375
2831.58,90.9375
2826.32,90.9375
2821.05,90.9375
2815.79,90.9375
2810.53,90.625
2805.26,90.625
2800.0,90.625
2794.74,90.9375
2789.47,91.25
2784.21,91.25
2778.95,91.25
2773.68,91.25
2768.42,91.5625
2763.16,91.875
2757.89,92.1875
2752.63,92.5
2747.37,92.8125
2742.11,92.8125
2736.84,93.125
2731.58,93.125
2726.32,92.5
2721.05,92.1875
2715.79,92.1875
2710.53,92.1875
2705.26,92.5
2700.0,92.5
2694.74,92.5
2689.47,92.8125
2684.21,92.8125
2678.95,93.125
2673.68,93.125
2668.42,92.8125
2663.16,92.1875
2657.89,91.875
2652.63,91.875
2647.37,91.875
2642.11,91.875
2636.84,91.875
2631.58,91.875
2626.32,91.5625
2621.05,91.5625
2615.79,91.5625
2610.53,91.875
2605.26,91.875
2600.0,92.1875
2594.74,92.5
2589.47,92.8125
2584.21,92.8125
2578.95,92.8125
2573.68,92.8125
2568.42,92.5
2563.16,92.5
2557.89,92.5
2552.63,92.5
2547.37,92.8125
2542.11,92.8125
2536.84,92.5
2531.58,91.875
2526.32,91.5625
2521.05,91.25
2515.79,90.9375
2510.53,90.9375
2505.26,90.9375
2500.0,91.5625
2494.74,92.1875
2489.47,93.125
2484.21,93.4375
2478.95,93.75
2473.68,93.75
2468.42,94.0625
2463.16,94.0625
2457.89,94.375
2452.63,94.375
2447.37,94.6875
2442.11,94.6875
2436.84,94.6875
2431.58,94.375
2426.32,93.75
2421.05,93.4375
2415.79,92.8125
2410.53,92.5
2405.26,92.1875
2400.0,92.1875
2394.74,92.1875
2389.47,92.1875
2384.21,92.1875
2378.95,92.1875
2373.68,92.1875
2368.42,91.875
2363.16,91.875
2357.89,91.25
2352.63,90.3125
2347.37,89.375
2342.11,88.125
2336.84,86.875
2331.58,85.625
2326.32,83.75
2321.05,80.9375
2315.79,77.5
2310.53,71.5625
2305.26,61.25
2300.0,43.75
2294.74,25.9375
2289.47,12.1875
2284.21,6.5625
2278.95,5.625
2273.68,7.8125
2268.42,15.0
2263.16,25.9375
2257.89,20.0
2252.63,12.5
2247.37,11.25
2242.11,11.875
2236.84,15.0
2231.58,28.125
2226.32,46.25
2221.05,58.75
2215.79,64.375
2210.53,68.4375
2205.26,72.8125
2200.0,74.375
2194.74,76.5625
2189.47,77.5
2184.21,77.5
2178.95,80.3125
2173.68,83.4375
2168.42,85.3125
2163.16,85.9375
2157.89,86.875
2152.63,88.125
2147.37,88.75
2142.11,89.375
2136.84,89.6875
2131.58,90.0
2126.32,90.3125
2121.05,90.3125
2115.79,90.625
2110.53,90.9375
2105.26,90.9375
2100.0,90.625
2094.74,90.0
2089.47,88.125
2084.21,85.0
2078.95,75.0
2073.68,52.8125
2068.42,45.9375
2063.16,46.875
2057.89,55.0
2052.63,70.0
2047.37,73.4375
2042.11,79.375
2036.84,83.75
2031.58,86.875
2026.32,89.0625
2021.05,90.3125
2015.79,90.9375
2010.53,90.9375
2005.26,90.9375
2000,90.9375
1994.74,90.625
1989.47,90.625
1984.21,90.3125
1978.95,89.6875
1973.68,88.75
1968.42,87.1875
1963.16,85.9375
1957.89,83.125
1952.63,75.9375
1947.37,59.375
1942.11,26.25
1936.84,11.875
1931.58,11.5625
1926.32,21.875
1921.05,34.0625
1915.79,55.9375
1910.53,66.875
1905.26,75.3125
1900.0,70.0
1894.74,28.75
1889.47,24.0625
1884.21,46.25
1878.95,41.25
1873.68,34.375
1868.42,35.3125
1863.16,39.0625
1857.89,39.375
1852.63,42.1875
1847.37,52.5
1842.11,56.875
1836.84,56.5625
1831.58,64.6875
1826.32,70.3125
1821.05,77.1875
1815.79,82.1875
1810.53,80.625
1805.26,73.125
1800.0,64.375
1794.74,67.1875
1789.47,77.8125
1784.21,74.0625
1778.95,60.0
1773.68,37.1875
1768.42,32.8125
1763.16,36.5625
1757.89,45.9375
1752.63,50.0
1747.37,50.3125
1742.11,55.625
1736.84,69.0625
1731.58,72.1875
1726.32,75.625
1721.05,78.125
1715.79,77.8125
1710.53,76.875
1705.26,75.9375
1700.0,74.6875
1694.74,73.125
1689.47,71.5625
1684.21,69.0625
1678.95,65.0
1673.68,56.25
1668.42,47.1875
1663.16,48.75
1657.89,53.75
1652.63,48.4375
1647.37,39.375
1642.11,33.125
1636.84,32.5
1631.58,29.0625
1626.32,24.0625
1621.05,17.8125
1615.79,12.5
1610.53,7.8125
1605.26,5.625
1600.0,5.0
1594.74,5.0
1589.47,5.3125
1584.21,5.625
1578.95,5.9375
1573.68,6.25
1568.42,6.5625
1563.16,9.375
1557.89,12.5
1552.63,13.75
1547.37,13.75
1542.11,14.375
1536.84,8.4375
1531.58,6.875
1526.32,6.875
1521.05,9.6875
1515.79,14.6875
1510.53,14.375
1505.26,7.8125
1500.0,5.3125
1494.74,4.6875
1489.47,5.0
1484.21,7.1875
1478.95,10.9375
1473.68,17.8125
1468.42,26.25
1463.16,35.625
1457.89,12.1875
1452.63,8.75
1447.37,11.25
1442.11,20.9375
1436.84,30.0
1431.58,36.25
1426.32,42.1875
1421.05,47.1875
1415.79,50.625
1410.53,54.375
1405.26,57.1875
1400.0,58.75
1394.74,54.6875
1389.47,35.9375
1384.21,33.4375
1378.95,45
1373.68,50.3125
1368.42,52.5
1363.16,62.8125
1357.89,64.0625
1352.63,59.6875
1347.37,41.875
1342.11,21.25
1336.84,13.75
1331.58,12.8125
1326.32,13.75
1321.05,23.75
1315.79,34.0625
1310.53,38.75
1305.26,42.1875
1300.0,46.5625
1294.74,41.25
1289.47,35.9375
1284.21,39.6875
1278.95,55.625
1273.68,63.125
1268.42,66.5625
1263.16,64.375
1257.89,58.4375
1252.63,33.75
1247.37,30.3125
1242.11,36.875
1236.84,46.875
1231.58,57.8125
1226.32,62.5
1221.05,67.5
1215.79,70.0
1210.53,72.5
1205.26,71.875
1200.0,63.4375
1194.74,55.3125
1189.47,40.625
1184.21,38.75
1178.95,42.8125
1173.68,53.125
1168.42,62.1875
1163.16,66.875
1157.89,69.375
1152.63,70.9375
1147.37,73.75
1142.11,75.0
1136.84,76.25
1131.58,75.0
1126.32,66.875
1121.05,61.5625
1115.79,61.5625
1110.53,70.9375
1105.26,73.4375
1100.0,75.0
1094.74,73.125
1089.47,69.375
1084.21,69.375
1078.95,69.375
1073.68,70.625
1068.42,74.375
1063.16,70.9375
1057.89,52.5
1052.63,36.25
1047.37,37.8125
1042.11,59.0625
1036.84,60.9375
1031.58,61.25
1026.32,72.8125
1021.05,77.1875
1015.79,78.4375
1010.53,79.375
1005.26,80.0
1000.0,77.5
994.737,65.0
989.474,65.9375
984.211,79.375
978.947,77.8125
973.684,75.9375
968.421,77.8125
963.158,82.8125
957.895,80.625
952.632,61.5625
947.368,61.875
942.105,79.375
936.842,78.75
931.579,71.25
926.316,69.0625
921.053,66.875
915.789,65.0
910.526,63.4375
905.263,56.875
900.0,49.0625
894.737,51.5625
889.474,70.625
884.211,75.0
878.947,71.875
873.684,71.875
868.421,75.9375
863.158,77.5
857.895,78.4375
852.632,74.0625
847.368,68.4375
842.105,67.8125
836.842,68.125
831.579,73.75
826.316,81.5625
821.053,84.375
815.789,82.8125
810.526,87.1875
805.263,88.125
800.0,86.25
794.737,81.25
789.474,69.0625
784.211,71.25
778.947,86.25
773.684,90.625
768.421,91.25
763.158,92.1875
757.895,90.9375
752.632,83.125
747.368,83.4375
742.105,91.5625
736.842,92.5
731.579,92.5
726.316,92.1875
721.053,92.1875
715.789,91.25
710.526,86.5625
705.263,90.3125
700,90.3125
694.737,90.3125
689.474,92.1875
684.211,93.125
678.947,93.125
673.684,93.75
668.421,94.0625
663.158,94.0625
657.895,93.75
652.632,92.8125
647.368,90.3125
642.105,80.625
636.842,70.0
631.579,71.25
626.316,84.0625
621.053,89.375
615.789,91.5625
610.526,92.5
605.263,93.75
600,94.375
594.737,94.6875
589.474,94.0625
584.211,92.8125
578.947,89.0625
573.684,79.6875
568.421,66.875
563.158,68.4375
557.895,74.0625
552.632,78.4375
547.368,80.9375
542.105,81.25
536.842,82.1875
531.579,84.0625
526.316,84.6875
521.053,85.3125
515.789,85.625
510.526,85.9375
505.263,85.9375
500,85.9375
494.737,85.9375
489.474,85.9375
484.211,86.25
478.947,86.25
473.684,86.5625
468.421,86.5625
463.158,86.25
457.895,85.9375
452.632,85.625
447.368,84.375
442.105,83.125
436.842,80.625
431.579,77.1875
426.316,73.125
421.053,69.6875
415.789,65.625
410.526,62.1875
405.263,59.6875
400.0,58.4375