File: data/public/sdbs/processed/samples/polyethylene glycol mono-p-nonylphenyl ether.csv
Wavenumber,Intensity
4000.0,0.0
3994.74,85.625
3989.47,85.9375
3984.21,86.25
3978.95,86.875
3973.68,87.5
3968.42,88.125
3963.16,88.75
3957.89,89.375
3952.63,89.6875
3947.37,90.3125
3942.11,90.625
3936.84,91.25
3931.58,91.875
3926.32,92.1875
3921.05,92.8125
3915.79,92.8125
3910.53,92.8125
3905.26,93.125
3900.0,93.125
3894.74,93.4375
3889.47,93.75
3884.21,93.75
3878.95,93.75
3873.68,94.0625
3868.42,94.0625
3863.16,94.0625
3857.89,94.0625
3852.63,93.75
3847.37,93.75
3842.11,93.75
3836.84,93.75
3831.58,94.0625
3826.32,94.0625
3821.05,94.0625
3815.79,94.0625
3810.53,93.75
3805.26,93.75
3800.0,93.75
3794.74,93.4375
3789.47,93.125
3784.21,92.5
3778.95,91.875
3773.68,91.25
3768.42,90.625
3763.16,89.375
3757.89,87.8125
3752.63,85.9375
3747.37,84.375
3742.11,81.875
3736.84,78.75
3731.58,75.625
3726.32,72.8125
3721.05,69.6875
3715.79,67.1875
3710.53,65.3125
3705.26,63.4375
3700.0,61.25
3694.74,59.0625
3689.47,57.5
3684.21,55.0
3678.95,52.5
3673.68,50.0
3668.42,48.4375
3663.16,46.25
3657.89,45
3652.63,43.75
3647.37,43.125
3642.11,42.5
3636.84,41.875
3631.58,41.5625
3626.32,41.5625
3621.05,41.25
3615.79,41.25
3610.53,40.9375
3605.26,40.625
3600.0,40.3125
3594.74,40.0
3589.47,39.6875
3584.21,39.0625
3578.95,38.75
3573.68,38.125
3568.42,37.8125
3563.16,37.1875
3557.89,36.875
3552.63,36.5625
3547.37,36.5625
3542.11,36.5625
3536.84,36.5625
3531.58,36.875
3526.32,37.1875
3521.05,37.8125
3515.79,38.4375
3510.53,39.0625
3505.26,40.3125
3500.0,41.25
3494.74,42.1875
3489.47,43.75
3484.21,45
3478.95,46.5625
3473.68,48.125
3468.42,50.0
3463.16,51.5625
3457.89,53.75
3452.63,55.3125
3447.37,57.1875
3442.11,59.0625
3436.84,60.9375
3431.58,62.5
3426.32,64.6875
3421.05,66.5625
3415.79,68.4375
3410.53,69.6875
3405.26,71.25
3400.0,72.5
3394.74,73.4375
3389.47,73.75
3384.21,75.0
3378.95,74.375
3373.68,73.4375
3368.42,74.375
3363.16,73.4375
3357.89,70.3125
3352.63,67.5
3347.37,65.3125
3342.11,65.3125
3336.84,63.125
3331.58,61.5625
3326.32,62.1875
3321.05,67.1875
3315.79,64.0625
3310.53,59.375
3305.26,51.875
3300.0,38.4375
3294.74,22.8125
3289.47,13.125
3284.21,8.125
3278.95,6.875
3273.68,6.875
3268.42,6.875
3263.16,6.5625
3257.89,6.25
3252.63,5.9375
3247.37,5.9375
3242.11,5.9375
3236.84,5.9375
3231.58,5.9375
3226.32,5.3125
3221.05,5.0
3215.79,5.0
3210.53,5.0
3205.26,5.625
3200.0,7.5
3194.74,10.625
3189.47,15.0
3184.21,18.75
3178.95,22.5
3173.68,25.9375
3168.42,30.3125
3163.16,33.75
3157.89,38.4375
3152.63,42.5
3147.37,46.5625
3142.11,49.0625
3136.84,51.5625
3131.58,52.5
3126.32,52.8125
3121.05,53.125
3115.79,54.0625
3110.53,55.9375
3105.26,58.4375
3100.0,60.9375
3094.74,63.75
3089.47,66.5625
3084.21,71.5625
3078.95,75.9375
3073.68,78.75
3068.42,80.0
3063.16,80.9375
3057.89,81.25
3052.63,81.875
3047.37,82.1875
3042.11,82.1875
3036.84,82.5
3031.58,82.5
3026.32,82.5
3021.05,83.125
3015.79,83.4375
3010.53,84.0625
3005.26,84.6875
3000.0,85.0
2994.74,85.3125
2989.47,85.3125
2984.21,85.625
2978.95,85.625
2973.68,85.9375
2968.42,86.25
2963.16,86.25
2957.89,86.5625
2952.63,86.5625
2947.37,86.875
2942.11,87.5
2936.84,88.125
2931.58,88.4375
2926.32,89.0625
2921.05,89.0625
2915.79,89.0625
2910.53,89.0625
2905.26,89.0625
2900.0,89.375
2894.74,89.6875
2889.47,90.0
2884.21,90.3125
2878.95,90.625
2873.68,90.625
2868.42,90.625
2863.16,90.3125
2857.89,90.3125
2852.63,90.3125
2847.37,90.3125
2842.11,90.3125
2836.84,90.0
2831.58,90.0
2826.32,90.0
2821.05,89.6875
2815.79,89.6875
2810.53,89.6875
2805.26,89.375
2800.0,89.375
2794.74,89.375
2789.47,89.375
2784.21,89.375
2778.95,89.375
2773.68,89.375
2768.42,89.375
2763.16,89.6875
2757.89,89.6875
2752.63,89.6875
2747.37,89.375
2742.11,89.0625
2736.84,88.75
2731.58,88.75
2726.32,88.4375
2721.05,88.4375
2715.79,88.125
2710.53,88.125
2705.26,88.125
2700.0,88.125
2694.74,88.125
2689.47,87.8125
2684.21,87.8125
2678.95,87.8125
2673.68,87.8125
2668.42,88.125
2663.16,88.4375
2657.89,88.4375
2652.63,88.4375
2647.37,88.4375
2642.11,88.4375
2636.84,88.4375
2631.58,88.125
2626.32,87.5
2621.05,86.5625
2615.79,85.3125
2610.53,84.375
2605.26,83.75
2600.0,82.8125
2594.74,81.875
2589.47,81.5625
2584.21,80.9375
2578.95,80.625
2573.68,80.3125
2568.42,80.3125
2563.16,80.0
2557.89,80.0
2552.63,80.0
2547.37,80.3125
2542.11,80.625
2536.84,80.9375
2531.58,81.25
2526.32,81.875
2521.05,82.8125
2515.79,83.4375
2510.53,84.0625
2505.26,85.0
2500.0,85.625
2494.74,86.25
2489.47,86.875
2484.21,87.5
2478.95,87.8125
2473.68,87.8125
2468.42,88.125
2463.16,88.125
2457.89,88.125
2452.63,88.125
2447.37,88.4375
2442.11,89.0625
2436.84,89.6875
2431.58,90.625
2426.32,91.5625
2421.05,92.1875
2415.79,92.5
2410.53,93.125
2405.26,93.4375
2400.0,93.75
2394.74,94.0625
2389.47,94.375
2384.21,94.6875
2378.95,94.6875
2373.68,94.6875
2368.42,95.0
2363.16,94.6875
2357.89,94.6875
2352.63,94.6875
2347.37,94.6875
2342.11,94.375
2336.84,94.375
2331.58,94.0625
2326.32,94.0625
2321.05,93.75
2315.79,93.4375
2310.53,93.125
2305.26,92.8125
2300.0,92.5
2294.74,92.1875
2289.47,91.5625
2284.21,91.25
2278.95,90.9375
2273.68,90.9375
2268.42,90.9375
2263.16,90.9375
2257.89,91.25
2252.63,91.25
2247.37,91.25
2242.11,91.25
2236.84,91.5625
2231.58,91.5625
2226.32,91.875
2221.05,92.1875
2215.79,92.5
2210.53,92.5
2205.26,92.8125
2200.0,92.8125
2194.74,92.8125
2189.47,92.8125
2184.21,92.5
2178.95,92.1875
2173.68,91.5625
2168.42,90.9375
2163.16,90.0
2157.89,89.0625
2152.63,87.5
2147.37,85.9375
2142.11,83.75
2136.84,81.875
2131.58,80.0
2126.32,78.4375
2121.05,77.1875
2115.79,76.5625
2110.53,76.25
2105.26,76.25
2100.0,75.625
2094.74,74.0625
2089.47,70.0
2084.21,61.25
2078.95,44.0625
2073.68,33.125
2068.42,32.8125
2063.16,39.375
2057.89,53.4375
2052.63,62.5
2047.37,71.25
2042.11,75.3125
2036.84,65.625
2031.58,58.75
2026.32,59.375
2021.05,71.5625
2015.79,78.125
2010.53,81.875
2005.26,83.75
2000,84.6875
1994.74,85.0
1989.47,84.6875
1984.21,84.0625
1978.95,82.8125
1973.68,80.625
1968.42,77.8125
1963.16,73.125
1957.89,67.1875
1952.63,54.375
1947.37,32.8125
1942.11,13.4375
1936.84,10.0
1931.58,10.3125
1926.32,17.8125
1921.05,30.9375
1915.79,42.5
1910.53,41.875
1905.26,37.5
1900.0,35.9375
1894.74,33.4375
1889.47,27.1875
1884.21,21.875
1878.95,18.75
1873.68,16.875
1868.42,16.25
1863.16,15.625
1857.89,15.3125
1852.63,15.625
1847.37,17.8125
1842.11,22.5
1836.84,28.125
1831.58,32.8125
1826.32,41.25
1821.05,50.3125
1815.79,55.625
1810.53,57.5
1805.26,55.0
1800.0,51.875
1794.74,52.1875
1789.47,52.8125
1784.21,53.4375
1778.95,52.5
1773.68,50.625
1768.42,45.3125
1763.16,37.1875
1757.89,33.125
1752.63,30.3125
1747.37,29.6875
1742.11,30.0
1736.84,28.75
1731.58,24.6875
1726.32,23.125
1721.05,19.375
1715.79,16.875
1710.53,16.5625
1705.26,16.875
1700.0,23.4375
1694.74,37.8125
1689.47,40.625
1684.21,37.1875
1678.95,34.375
1673.68,33.75
1668.42,34.375
1663.16,31.25
1657.89,26.875
1652.63,22.8125
1647.37,19.375
1642.11,17.5
1636.84,16.875
1631.58,16.875
1626.32,17.5
1621.05,18.125
1615.79,20.0
1610.53,22.5
1605.26,25.9375
1600.0,27.5
1594.74,23.75
1589.47,17.5
1584.21,12.5
1578.95,9.0625
1573.68,8.125
1568.42,8.125
1563.16,9.0625
1557.89,10.9375
1552.63,13.75
1547.37,16.875
1542.11,20.9375
1536.84,25.0
1531.58,29.375
1526.32,34.0625
1521.05,38.75
1515.79,42.8125
1510.53,47.1875
1505.26,47.5
1500.0,42.5
1494.74,32.1875
1489.47,22.8125
1484.21,21.25
1478.95,22.1875
1473.68,30.3125
1468.42,35.625
1463.16,31.875
1457.89,26.5625
1452.63,19.0625
1447.37,12.8125
1442.11,9.0625
1436.84,7.5
1431.58,6.5625
1426.32,5.9375
1421.05,5.625
1415.79,5.3125
1410.53,5.3125
1405.26,5.0
1400.0,5.0
1394.74,4.6875
1389.47,4.6875
1384.21,4.6875
1378.95,4.6875
1373.68,4.6875
1368.42,5.0
1363.16,5.3125
1357.89,5.625
1352.63,5.9375
1347.37,6.5625
1342.11,7.5
1336.84,8.4375
1331.58,9.0625
1326.32,9.6875
1321.05,10.0
1315.79,10.3125
1310.53,10.9375
1305.26,12.1875
1300.0,14.0625
1294.74,15.9375
1289.47,16.875
1284.21,17.1875
1278.95,17.5
1273.68,18.125
1268.42,19.6875
1263.16,22.8125
1257.89,26.875
1252.63,31.25
1247.37,35.0
1242.11,35.0
1236.84,35.9375
1231.58,39.6875
1226.32,40.3125
1221.05,40.3125
1215.79,40.625
1210.53,42.1875
1205.26,44.0625
1200.0,47.1875
1194.74,50.0
1189.47,49.0625
1184.21,43.75
1178.95,35.3125
1173.68,27.1875
1168.42,21.5625
1163.16,19.375
1157.89,19.0625
1152.63,19.375
1147.37,20.625
1142.11,21.5625
1136.84,23.125
1131.58,24.375
1126.32,25.9375
1121.05,27.5
1115.79,30.3125
1110.53,33.125
1105.26,36.25
1100.0,39.375
1094.74,43.75
1089.47,47.8125
1084.21,50.3125
1078.95,48.75
1073.68,46.25
1068.42,45.9375
1063.16,45.9375
1057.89,47.5
1052.63,48.75
1047.37,46.5625
1042.11,44.6875
1036.84,42.8125
1031.58,40.9375
1026.32,37.8125
1021.05,35.0
1015.79,31.5625
1010.53,29.6875
1005.26,28.125
1000.0,26.25
994.737,25.0
989.474,25.0
984.211,26.875
978.947,35.0
973.684,43.75
968.421,49.6875
963.158,53.125
957.895,53.75
952.632,55.0
947.368,59.6875
942.105,67.5
936.842,72.5
931.579,76.5625
926.316,78.125
921.053,79.375
915.789,81.5625
910.526,84.6875
905.263,86.875
900.0,86.875
894.737,84.375
889.474,80.9375
884.211,80.0
878.947,80.3125
873.684,82.1875
868.421,85.0
863.158,87.5
857.895,85.625
852.632,84.375
847.368,87.1875
842.105,92.5
836.842,94.375
831.579,94.6875
826.316,94.375
821.053,93.4375
815.789,92.5
810.526,91.875
805.263,90.625
800.0,88.4375
794.737,85.3125
789.474,80.9375
784.211,80.3125
778.947,80.625
773.684,82.8125
768.421,85.0
763.158,86.5625
757.895,86.875
752.632,86.875
747.368,86.25
742.105,85.9375
736.842,85.3125
731.579,84.375
726.316,81.25
721.053,81.25
715.789,81.5625
710.526,81.25
705.263,79.6875
700,77.8125
694.737,75.9375
689.474,73.75
684.211,71.5625
678.947,69.0625
673.684,66.875
668.421,65.0
663.158,63.4375
657.895,62.1875
652.632,60.625
647.368,59.0625
642.105,56.5625
636.842,54.375
631.579,52.8125
626.316,52.5
621.053,52.8125
615.789,53.4375
610.526,55.0
605.263,56.25
600,57.5
594.737,58.75
589.474,59.375
584.211,59.6875
578.947,59.6875
573.684,59.6875
568.421,59.6875
563.158,60.0
557.895,60.625
552.632,61.25
547.368,62.5
542.105,64.0625
536.842,65.3125
531.579,67.1875
526.316,68.75
521.053,70.3125
515.789,71.875
510.526,73.125
505.263,74.6875
500,75.625
494.737,76.5625
489.474,77.5
484.211,78.4375
478.947,79.0625
473.684,80.0
468.421,80.625
463.158,81.25
457.895,81.875
452.632,82.1875
447.368,82.5
442.105,82.8125
436.842,82.8125
431.579,82.5
426.316,82.1875
421.053,81.875
415.789,81.25
410.526,80.9375
405.263,80.9375
400.0,80.625