File: data/public/sdbs/processed/samples/propylene carbonate.csv
Wavenumber,Intensity
4000.0,0.0
3994.74,84.375
3989.47,84.375
3984.21,84.6875
3978.95,85.0
3973.68,84.6875
3968.42,84.6875
3963.16,85.0
3957.89,85.3125
3952.63,85.625
3947.37,85.9375
3942.11,86.25
3936.84,86.5625
3931.58,86.5625
3926.32,86.875
3921.05,87.1875
3915.79,87.1875
3910.53,87.1875
3905.26,87.5
3900.0,87.5
3894.74,87.8125
3889.47,88.125
3884.21,88.125
3878.95,88.4375
3873.68,88.4375
3868.42,88.4375
3863.16,88.75
3857.89,88.75
3852.63,88.75
3847.37,88.75
3842.11,88.75
3836.84,88.75
3831.58,89.0625
3826.32,89.0625
3821.05,89.375
3815.79,89.375
3810.53,89.0625
3805.26,89.0625
3800.0,88.75
3794.74,88.4375
3789.47,87.8125
3784.21,86.5625
3778.95,84.6875
3773.68,82.5
3768.42,80.625
3763.16,78.4375
3757.89,76.25
3752.63,74.6875
3747.37,73.125
3742.11,71.5625
3736.84,70.0
3731.58,68.125
3726.32,66.875
3721.05,65.0
3715.79,63.75
3710.53,62.1875
3705.26,60.3125
3700.0,58.75
3694.74,57.5
3689.47,56.25
3684.21,55.0
3678.95,53.75
3673.68,52.8125
3668.42,52.1875
3663.16,51.5625
3657.89,50.625
3652.63,49.6875
3647.37,48.75
3642.11,47.8125
3636.84,46.875
3631.58,46.25
3626.32,45.3125
3621.05,44.6875
3615.79,44.0625
3610.53,43.75
3605.26,43.4375
3600.0,42.8125
3594.74,42.8125
3589.47,42.5
3584.21,42.1875
3578.95,42.1875
3573.68,42.1875
3568.42,42.1875
3563.16,42.1875
3557.89,42.1875
3552.63,42.5
3547.37,42.8125
3542.11,43.125
3536.84,43.4375
3531.58,43.75
3526.32,44.0625
3521.05,44.375
3515.79,44.375
3510.53,44.6875
3505.26,44.6875
3500.0,44.6875
3494.74,44.6875
3489.47,45
3484.21,45.625
3478.95,46.25
3473.68,46.5625
3468.42,47.1875
3463.16,47.8125
3457.89,48.75
3452.63,49.375
3447.37,50.3125
3442.11,50.9375
3436.84,51.875
3431.58,52.5
3426.32,53.125
3421.05,54.0625
3415.79,55.0
3410.53,55.625
3405.26,56.5625
3400.0,57.5
3394.74,58.4375
3389.47,59.375
3384.21,60.0
3378.95,60.9375
3373.68,61.5625
3368.42,62.1875
3363.16,62.8125
3357.89,63.125
3352.63,63.4375
3347.37,63.75
3342.11,64.0625
3336.84,64.375
3331.58,63.75
3326.32,62.8125
3321.05,60.9375
3315.79,57.8125
3310.53,54.375
3305.26,48.125
3300.0,45.3125
3294.74,45.3125
3289.47,48.4375
3284.21,52.8125
3278.95,56.875
3273.68,57.8125
3268.42,56.25
3263.16,55.3125
3257.89,55.0
3252.63,55.3125
3247.37,56.25
3242.11,60.3125
3236.84,63.4375
3231.58,65.625
3226.32,66.25
3221.05,66.5625
3215.79,67.5
3210.53,68.4375
3205.26,69.0625
3200.0,69.375
3194.74,69.6875
3189.47,70.625
3184.21,71.25
3178.95,72.5
3173.68,73.75
3168.42,74.6875
3163.16,75.3125
3157.89,75.9375
3152.63,76.25
3147.37,76.875
3142.11,77.1875
3136.84,77.5
3131.58,77.8125
3126.32,78.125
3121.05,78.4375
3115.79,78.75
3110.53,79.0625
3105.26,79.6875
3100.0,79.6875
3094.74,80.3125
3089.47,80.625
3084.21,80.9375
3078.95,81.25
3073.68,81.5625
3068.42,81.875
3063.16,82.1875
3057.89,82.5
3052.63,82.8125
3047.37,83.125
3042.11,83.125
3036.84,83.4375
3031.58,83.4375
3026.32,83.4375
3021.05,83.75
3015.79,83.75
3010.53,83.75
3005.26,84.0625
3000.0,84.0625
2994.74,84.0625
2989.47,84.0625
2984.21,84.0625
2978.95,83.75
2973.68,83.75
2968.42,83.75
2963.16,83.75
2957.89,84.0625
2952.63,84.375
2947.37,84.6875
2942.11,85.0
2936.84,85.3125
2931.58,85.625
2926.32,85.9375
2921.05,85.9375
2915.79,86.25
2910.53,86.5625
2905.26,86.875
2900.0,86.875
2894.74,87.1875
2889.47,86.875
2884.21,86.5625
2878.95,85.9375
2873.68,85.9375
2868.42,85.9375
2863.16,85.9375
2857.89,85.9375
2852.63,85.9375
2847.37,86.25
2842.11,86.25
2836.84,86.5625
2831.58,86.5625
2826.32,86.5625
2821.05,87.1875
2815.79,87.8125
2810.53,88.4375
2805.26,89.0625
2800.0,89.375
2794.74,89.6875
2789.47,89.6875
2784.21,89.6875
2778.95,89.6875
2773.68,90.0
2768.42,90.3125
2763.16,90.9375
2757.89,91.25
2752.63,91.5625
2747.37,91.5625
2742.11,91.5625
2736.84,91.5625
2731.58,91.5625
2726.32,91.5625
2721.05,91.5625
2715.79,91.5625
2710.53,91.5625
2705.26,91.5625
2700.0,91.5625
2694.74,91.5625
2689.47,91.5625
2684.21,91.875
2678.95,92.1875
2673.68,92.1875
2668.42,92.1875
2663.16,92.5
2657.89,92.5
2652.63,92.8125
2647.37,92.8125
2642.11,92.5
2636.84,92.1875
2631.58,91.875
2626.32,91.5625
2621.05,91.25
2615.79,91.25
2610.53,90.9375
2605.26,90.9375
2600.0,90.625
2594.74,90.3125
2589.47,90.0
2584.21,90.0
2578.95,89.6875
2573.68,89.6875
2568.42,90.0
2563.16,90.0
2557.89,90.0
2552.63,90.0
2547.37,90.0
2542.11,90.0
2536.84,90.0
2531.58,89.6875
2526.32,89.6875
2521.05,89.375
2515.79,89.0625
2510.53,88.75
2505.26,88.125
2500.0,87.1875
2494.74,85.9375
2489.47,83.4375
2484.21,81.5625
2478.95,80.625
2473.68,80.0
2468.42,80.0
2463.16,80.0
2457.89,80.3125
2452.63,79.375
2447.37,77.8125
2442.11,75.625
2436.84,74.0625
2431.58,71.5625
2426.32,68.75
2421.05,66.25
2415.79,63.75
2410.53,60.3125
2405.26,55.0
2400.0,48.125
2394.74,41.25
2389.47,32.8125
2384.21,25.3125
2378.95,20.0
2373.68,15.9375
2368.42,11.875
2363.16,9.375
2357.89,7.5
2352.63,6.875
2347.37,6.25
2342.11,5.625
2336.84,5.3125
2331.58,5.0
2326.32,4.6875
2321.05,4.6875
2315.79,4.6875
2310.53,5.0
2305.26,6.25
2300.0,9.375
2294.74,14.6875
2289.47,20.3125
2284.21,27.5
2278.95,35.3125
2273.68,42.8125
2268.42,47.8125
2263.16,53.125
2257.89,57.1875
2252.63,60.625
2247.37,63.4375
2242.11,66.875
2236.84,69.375
2231.58,71.25
2226.32,73.125
2221.05,74.375
2215.79,75.3125
2210.53,75.3125
2205.26,75.625
2200.0,75.625
2194.74,75.625
2189.47,75.9375
2184.21,75.9375
2178.95,76.25
2173.68,76.25
2168.42,76.25
2163.16,75.9375
2157.89,75.625
2152.63,75.0
2147.37,74.375
2142.11,73.75
2136.84,72.8125
2131.58,72.1875
2126.32,71.25
2121.05,70.3125
2115.79,69.6875
2110.53,69.0625
2105.26,69.0625
2100.0,69.0625
2094.74,69.0625
2089.47,69.375
2084.21,69.6875
2078.95,70.0
2073.68,70.3125
2068.42,70.0
2063.16,69.6875
2057.89,68.4375
2052.63,67.1875
2047.37,65.3125
2042.11,63.75
2036.84,61.875
2031.58,60.0
2026.32,58.4375
2021.05,57.1875
2015.79,55.0
2010.53,52.5
2005.26,50.3125
2000,49.375
1994.74,49.375
1989.47,50.625
1984.21,53.75
1978.95,57.1875
1973.68,59.0625
1968.42,61.25
1963.16,63.125
1957.89,64.375
1952.63,65.3125
1947.37,66.25
1942.11,66.875
1936.84,66.5625
1931.58,65.0
1926.32,63.4375
1921.05,60.625
1915.79,57.5
1910.53,52.1875
1905.26,45.3125
1900.0,38.4375
1894.74,38.125
1889.47,40.0
1884.21,46.25
1878.95,50.3125
1873.68,51.875
1868.42,52.1875
1863.16,51.5625
1857.89,51.5625
1852.63,51.5625
1847.37,51.875
1842.11,55.0
1836.84,60.9375
1831.58,63.4375
1826.32,64.6875
1821.05,65.0
1815.79,64.6875
1810.53,62.8125
1805.26,60.0
1800.0,56.5625
1794.74,53.125
1789.47,46.5625
1784.21,38.75
1778.95,32.1875
1773.68,27.1875
1768.42,21.5625
1763.16,20.3125
1757.89,23.75
1752.63,39.0625
1747.37,50.625
1742.11,57.1875
1736.84,57.1875
1731.58,51.5625
1726.32,40.625
1721.05,28.4375
1715.79,26.5625
1710.53,29.0625
1705.26,39.375
1700.0,48.4375
1694.74,50.9375
1689.47,50.9375
1684.21,51.5625
1678.95,54.0625
1673.68,57.1875
1668.42,60.3125
1663.16,62.1875
1657.89,63.75
1652.63,64.6875
1647.37,65.625
1642.11,66.25
1636.84,66.875
1631.58,67.5
1626.32,68.125
1621.05,68.4375
1615.79,68.75
1610.53,69.0625
1605.26,69.6875
1600.0,70.0
1594.74,70.3125
1589.47,70.9375
1584.21,71.5625
1578.95,72.1875
1573.68,72.5
1568.42,72.8125
1563.16,71.875
1557.89,70.3125
1552.63,67.1875
1547.37,62.5
1542.11,59.6875
1536.84,59.0625
1531.58,59.375
1526.32,59.6875
1521.05,56.5625
1515.79,49.375
1510.53,39.6875
1505.26,28.75
1500.0,20.625
1494.74,15.3125
1489.47,12.5
1484.21,11.875
1478.95,11.875
1473.68,12.8125
1468.42,14.0625
1463.16,15.9375
1457.89,18.75
1452.63,21.875
1447.37,27.1875
1442.11,33.4375
1436.84,38.75
1431.58,37.5
1426.32,37.8125
1421.05,43.75
1415.79,47.5
1410.53,40.9375
1405.26,28.75
1400.0,20.625
1394.74,18.125
1389.47,18.125
1384.21,21.25
1378.95,29.375
1373.68,37.8125
1368.42,45.9375
1363.16,47.8125
1357.89,44.0625
1352.63,36.875
1347.37,30.0
1342.11,24.6875
1336.84,22.5
1331.58,21.875
1326.32,22.5
1321.05,23.75
1315.79,20.9375
1310.53,15.0
1305.26,11.25
1300.0,10.625
1294.74,10.625
1289.47,12.1875
1284.21,16.5625
1278.95,22.1875
1273.68,30.625
1268.42,40.0
1263.16,52.8125
1257.89,64.375
1252.63,72.1875
1247.37,78.4375
1242.11,82.1875
1236.84,84.6875
1231.58,86.5625
1226.32,87.8125
1221.05,89.0625
1215.79,90.3125
1210.53,91.25
1205.26,91.875
1200.0,92.5
1194.74,92.8125
1189.47,92.1875
1184.21,91.5625
1178.95,89.0625
1173.68,85.3125
1168.42,83.75
1163.16,82.8125
1157.89,82.5
1152.63,82.5
1147.37,83.4375
1142.11,85.0
1136.84,87.1875
1131.58,90.0
1126.32,90.0
1121.05,90.0
1115.79,90.0
1110.53,90.3125
1105.26,90.9375
1100.0,91.5625
1094.74,92.1875
1089.47,93.125
1084.21,93.75
1078.95,94.375
1073.68,94.6875
1068.42,94.6875
1063.16,94.6875
1057.89,94.6875
1052.63,94.0625
1047.37,93.4375
1042.11,92.8125
1036.84,90.9375
1031.58,87.1875
1026.32,81.875
1021.05,79.0625
1015.79,78.75
1010.53,79.375
1005.26,81.5625
1000.0,84.375
994.737,85.9375
989.474,85.9375
984.211,85.9375
978.947,85.9375
973.684,86.25
968.421,86.5625
963.158,86.5625
957.895,86.5625
952.632,85.9375
947.368,84.6875
942.105,82.5
936.842,78.125
931.579,66.875
926.316,43.4375
921.053,27.5
915.789,25.3125
910.526,29.0625
905.263,50.3125
900.0,71.5625
894.737,78.75
889.474,81.25
884.211,82.5
878.947,83.75
873.684,84.0625
868.421,84.0625
863.158,83.75
857.895,83.125
852.632,82.1875
847.368,80.0
842.105,75.625
836.842,65.625
831.579,47.5
826.316,45
821.053,48.125
815.789,61.25
810.526,70.9375
805.263,76.5625
800.0,79.6875
794.737,81.25
789.474,81.875
784.211,82.5
778.947,82.8125
773.684,82.8125
768.421,82.8125
763.158,82.5
757.895,82.1875
752.632,81.875
747.368,81.5625
742.105,81.25
736.842,80.9375
731.579,80.9375
726.316,80.9375
721.053,80.9375
715.789,80.9375
710.526,81.25
705.263,81.25
700,81.5625
694.737,81.5625
689.474,81.875
684.211,81.875
678.947,81.875
673.684,81.875
668.421,81.875
663.158,82.1875
657.895,82.1875
652.632,82.5
647.368,82.5
642.105,82.5
636.842,82.8125
631.579,83.125
626.316,83.125
621.053,82.8125
615.789,82.5
610.526,81.875
605.263,81.875
600,81.5625
594.737,81.5625
589.474,81.5625
584.211,81.5625
578.947,81.875
573.684,81.875
568.421,82.1875
563.158,82.5
557.895,82.5
552.632,82.8125
547.368,82.8125
542.105,82.8125
536.842,83.125
531.579,83.125
526.316,83.125
521.053,83.4375
515.789,83.4375
510.526,83.4375
505.263,83.125
500,82.5
494.737,81.5625
489.474,80.625
484.211,79.375
478.947,78.4375
473.684,77.5
468.421,77.1875
463.158,76.875
457.895,76.5625
452.632,76.5625
447.368,76.5625
442.105,76.5625
436.842,76.875
431.579,76.5625
426.316,75.9375
421.053,75.3125
415.789,74.0625
410.526,73.125
405.263,72.1875
400.0,71.875