File: data/public/sdbs/processed/samples/pyridine 1-oxide.csv
Wavenumber,Intensity
4000.0,0.0
3994.74,87.5
3989.47,87.5
3984.21,87.8125
3978.95,87.8125
3973.68,87.8125
3968.42,87.5
3963.16,87.1875
3957.89,87.1875
3952.63,86.875
3947.37,86.875
3942.11,86.875
3936.84,87.1875
3931.58,87.1875
3926.32,87.5
3921.05,87.8125
3915.79,87.8125
3910.53,87.8125
3905.26,87.8125
3900.0,87.8125
3894.74,88.125
3889.47,88.125
3884.21,88.125
3878.95,88.125
3873.68,88.125
3868.42,88.125
3863.16,88.125
3857.89,88.125
3852.63,88.125
3847.37,88.125
3842.11,88.125
3836.84,88.125
3831.58,87.8125
3826.32,87.5
3821.05,87.1875
3815.79,87.1875
3810.53,87.1875
3805.26,87.1875
3800.0,87.5
3794.74,87.5
3789.47,86.875
3784.21,85.9375
3778.95,85.0
3773.68,83.75
3768.42,83.125
3763.16,81.875
3757.89,80.625
3752.63,79.0625
3747.37,77.8125
3742.11,75.625
3736.84,73.125
3731.58,70.0
3726.32,67.5
3721.05,64.375
3715.79,61.875
3710.53,59.375
3705.26,55.9375
3700.0,52.8125
3694.74,50.0
3689.47,47.5
3684.21,45
3678.95,42.5
3673.68,39.6875
3668.42,37.1875
3663.16,35.3125
3657.89,32.8125
3652.63,31.25
3647.37,29.6875
3642.11,28.125
3636.84,26.875
3631.58,25.625
3626.32,25.0
3621.05,24.0625
3615.79,23.125
3610.53,22.5
3605.26,21.875
3600.0,21.5625
3594.74,21.5625
3589.47,21.25
3584.21,20.9375
3578.95,20.9375
3573.68,20.9375
3568.42,20.9375
3563.16,21.25
3557.89,21.25
3552.63,21.5625
3547.37,22.1875
3542.11,22.8125
3536.84,23.4375
3531.58,24.0625
3526.32,24.375
3521.05,25.0
3515.79,25.3125
3510.53,25.625
3505.26,26.25
3500.0,26.5625
3494.74,26.875
3489.47,27.5
3484.21,27.8125
3478.95,28.4375
3473.68,29.0625
3468.42,30.0
3463.16,30.9375
3457.89,32.1875
3452.63,33.4375
3447.37,34.375
3442.11,35.9375
3436.84,37.1875
3431.58,38.4375
3426.32,39.6875
3421.05,40.9375
3415.79,41.875
3410.53,43.125
3405.26,44.0625
3400.0,44.0625
3394.74,40.9375
3389.47,34.375
3384.21,28.125
3378.95,25.9375
3373.68,26.25
3368.42,29.6875
3363.16,30.625
3357.89,29.0625
3352.63,29.0625
3347.37,30.625
3342.11,32.1875
3336.84,32.5
3331.58,34.6875
3326.32,38.4375
3321.05,44.0625
3315.79,41.5625
3310.53,41.5625
3305.26,45.625
3300.0,54.0625
3294.74,59.0625
3289.47,60.9375
3284.21,60.9375
3278.95,61.5625
3273.68,62.1875
3268.42,61.875
3263.16,61.5625
3257.89,61.5625
3252.63,61.875
3247.37,63.125
3242.11,65.625
3236.84,67.8125
3231.58,69.6875
3226.32,70.625
3221.05,72.5
3215.79,73.4375
3210.53,73.4375
3205.26,73.4375
3200.0,73.4375
3194.74,73.75
3189.47,75.625
3184.21,77.1875
3178.95,77.5
3173.68,78.125
3168.42,79.375
3163.16,79.6875
3157.89,78.75
3152.63,78.4375
3147.37,79.375
3142.11,83.4375
3136.84,86.5625
3131.58,87.1875
3126.32,87.5
3121.05,87.8125
3115.79,88.125
3110.53,88.125
3105.26,87.8125
3100.0,87.8125
3094.74,87.8125
3089.47,88.125
3084.21,88.75
3078.95,89.0625
3073.68,89.0625
3068.42,88.125
3063.16,87.5
3057.89,87.1875
3052.63,87.1875
3047.37,88.75
3042.11,89.375
3036.84,90.3125
3031.58,91.25
3026.32,91.5625
3021.05,91.875
3015.79,91.875
3010.53,91.875
3005.26,91.875
3000.0,92.1875
2994.74,91.875
2989.47,91.875
2984.21,91.25
2978.95,90.9375
2973.68,90.3125
2968.42,88.75
2963.16,87.1875
2957.89,86.25
2952.63,84.0625
2947.37,83.125
2942.11,82.1875
2936.84,82.1875
2931.58,82.5
2926.32,84.375
2921.05,85.0
2915.79,85.625
2910.53,85.9375
2905.26,86.25
2900.0,86.25
2894.74,86.5625
2889.47,87.1875
2884.21,87.8125
2878.95,89.0625
2873.68,90.3125
2868.42,90.3125
2863.16,90.3125
2857.89,90.3125
2852.63,90.0
2847.37,90.0
2842.11,90.0
2836.84,90.0
2831.58,90.0
2826.32,89.375
2821.05,87.1875
2815.79,87.1875
2810.53,88.4375
2805.26,89.6875
2800.0,90.0
2794.74,89.6875
2789.47,89.375
2784.21,89.0625
2778.95,89.375
2773.68,89.375
2768.42,89.6875
2763.16,90.0
2757.89,90.3125
2752.63,90.3125
2747.37,90.3125
2742.11,90.3125
2736.84,90.3125
2731.58,90.3125
2726.32,90.3125
2721.05,90.3125
2715.79,90.625
2710.53,90.9375
2705.26,90.9375
2700.0,91.25
2694.74,91.25
2689.47,91.25
2684.21,90.625
2678.95,89.375
2673.68,87.5
2668.42,86.25
2663.16,85.3125
2657.89,85.3125
2652.63,85.9375
2647.37,87.8125
2642.11,89.6875
2636.84,91.5625
2631.58,90.9375
2626.32,90.0
2621.05,88.75
2615.79,88.75
2610.53,89.6875
2605.26,90.3125
2600.0,90.625
2594.74,90.625
2589.47,90.625
2584.21,90.625
2578.95,90.625
2573.68,90.3125
2568.42,90.3125
2563.16,90.3125
2557.89,90.625
2552.63,90.625
2547.37,90.9375
2542.11,91.25
2536.84,91.5625
2531.58,91.875
2526.32,92.1875
2521.05,92.5
2515.79,92.8125
2510.53,93.125
2505.26,93.4375
2500.0,93.4375
2494.74,93.125
2489.47,93.125
2484.21,92.8125
2478.95,92.8125
2473.68,92.5
2468.42,92.1875
2463.16,92.1875
2457.89,91.875
2452.63,91.875
2447.37,91.875
2442.11,91.5625
2436.84,91.5625
2431.58,91.25
2426.32,91.25
2421.05,91.25
2415.79,91.25
2410.53,91.25
2405.26,91.875
2400.0,92.5
2394.74,93.125
2389.47,93.4375
2384.21,94.0625
2378.95,94.6875
2373.68,95.0
2368.42,94.6875
2363.16,94.6875
2357.89,94.375
2352.63,94.375
2347.37,94.0625
2342.11,93.4375
2336.84,93.4375
2331.58,93.125
2326.32,92.8125
2321.05,92.8125
2315.79,92.8125
2310.53,92.8125
2305.26,92.8125
2300.0,92.5
2294.74,92.5
2289.47,92.1875
2284.21,92.1875
2278.95,92.1875
2273.68,91.875
2268.42,91.875
2263.16,91.875
2257.89,91.875
2252.63,91.875
2247.37,91.5625
2242.11,91.25
2236.84,90.9375
2231.58,90.625
2226.32,90.0
2221.05,89.0625
2215.79,87.1875
2210.53,85.9375
2205.26,84.6875
2200.0,82.5
2194.74,80.625
2189.47,78.75
2184.21,76.875
2178.95,75.3125
2173.68,73.75
2168.42,72.5
2163.16,71.25
2157.89,70.625
2152.63,69.6875
2147.37,69.375
2142.11,69.375
2136.84,69.375
2131.58,70.3125
2126.32,71.25
2121.05,72.1875
2115.79,73.125
2110.53,74.0625
2105.26,75.3125
2100.0,76.25
2094.74,77.1875
2089.47,76.5625
2084.21,74.6875
2078.95,71.25
2073.68,59.0625
2068.42,41.5625
2063.16,40.625
2057.89,46.875
2052.63,62.5
2047.37,71.25
2042.11,77.1875
2036.84,81.25
2031.58,85.625
2026.32,88.125
2021.05,88.75
2015.79,87.1875
2010.53,83.75
2005.26,79.375
2000,79.375
1994.74,79.6875
1989.47,84.375
1984.21,87.8125
1978.95,90.9375
1973.68,91.5625
1968.42,92.1875
1963.16,91.875
1957.89,91.25
1952.63,90.3125
1947.37,89.0625
1942.11,87.5
1936.84,86.25
1931.58,84.6875
1926.32,82.8125
1921.05,80.3125
1915.79,79.0625
1910.53,75.625
1905.26,70.0
1900.0,60.0
1894.74,48.75
1889.47,29.6875
1884.21,15.0
1878.95,9.0625
1873.68,5.625
1868.42,4.6875
1863.16,4.6875
1857.89,7.8125
1852.63,15.625
1847.37,32.8125
1842.11,45.9375
1836.84,53.75
1831.58,58.75
1826.32,62.8125
1821.05,66.25
1815.79,69.375
1810.53,72.1875
1805.26,75.0
1800.0,77.8125
1794.74,80.0
1789.47,81.875
1784.21,83.75
1778.95,85.0
1773.68,85.9375
1768.42,84.6875
1763.16,81.875
1757.89,80.625
1752.63,80.625
1747.37,80.625
1742.11,81.875
1736.84,84.0625
1731.58,84.6875
1726.32,85.9375
1721.05,87.5
1715.79,88.125
1710.53,88.4375
1705.26,88.125
1700.0,87.5
1694.74,86.5625
1689.47,85.9375
1684.21,85.625
1678.95,85.625
1673.68,85.9375
1668.42,86.875
1663.16,88.4375
1657.89,89.375
1652.63,89.375
1647.37,88.75
1642.11,87.8125
1636.84,86.5625
1631.58,84.6875
1626.32,82.5
1621.05,79.375
1615.79,74.375
1610.53,65.9375
1605.26,58.4375
1600.0,50.9375
1594.74,35.0
1589.47,20.9375
1584.21,15.3125
1578.95,11.875
1573.68,10.3125
1568.42,9.6875
1563.16,9.6875
1557.89,9.6875
1552.63,10.0
1547.37,11.25
1542.11,12.5
1536.84,14.0625
1531.58,18.4375
1526.32,26.5625
1521.05,37.1875
1515.79,45.3125
1510.53,49.375
1505.26,47.5
1500.0,44.6875
1494.74,42.1875
1489.47,40.3125
1484.21,37.1875
1478.95,31.875
1473.68,25.625
1468.42,20.3125
1463.16,20.0
1457.89,22.1875
1452.63,32.8125
1447.37,48.75
1442.11,57.8125
1436.84,60.625
1431.58,61.25
1426.32,61.875
1421.05,68.125
1415.79,73.4375
1410.53,78.125
1405.26,81.5625
1400.0,83.4375
1394.74,84.0625
1389.47,84.6875
1384.21,84.6875
1378.95,83.75
1373.68,83.125
1368.42,81.5625
1363.16,81.25
1357.89,81.5625
1352.63,83.125
1347.37,84.375
1342.11,83.75
1336.84,80.0
1331.58,71.5625
1326.32,64.0625
1321.05,63.75
1315.79,68.75
1310.53,75.9375
1305.26,81.25
1300.0,83.75
1294.74,80.625
1289.47,76.25
1284.21,75.625
1278.95,72.1875
1273.68,67.5
1268.42,61.25
1263.16,51.25
1257.89,39.0625
1252.63,20.9375
1247.37,17.5
1242.11,20.0
1236.84,45.9375
1231.58,61.25
1226.32,67.8125
1221.05,76.875
1215.79,81.5625
1210.53,84.375
1205.26,86.25
1200.0,87.8125
1194.74,88.125
1189.47,88.4375
1184.21,88.125
1178.95,88.125
1173.68,88.4375
1168.42,89.375
1163.16,90.625
1157.89,91.875
1152.63,91.875
1147.37,90.9375
1142.11,89.375
1136.84,86.25
1131.58,82.1875
1126.32,79.0625
1121.05,76.25
1115.79,74.0625
1110.53,73.4375
1105.26,73.4375
1100.0,74.0625
1094.74,76.5625
1089.47,81.25
1084.21,85.625
1078.95,89.0625
1073.68,90.9375
1068.42,92.1875
1063.16,92.8125
1057.89,93.125
1052.63,93.125
1047.37,92.8125
1042.11,91.875
1036.84,90.625
1031.58,87.8125
1026.32,83.125
1021.05,75.3125
1015.79,56.5625
1010.53,28.125
1005.26,16.5625
1000.0,16.25
994.737,17.5
989.474,23.125
984.211,28.4375
978.947,37.8125
973.684,48.125
968.421,58.4375
963.158,65.625
957.895,68.4375
952.632,67.5
947.368,62.1875
942.105,54.375
936.842,43.4375
931.579,33.125
926.316,24.6875
921.053,20.3125
915.789,17.1875
910.526,15.3125
905.263,14.6875
900.0,15.3125
894.737,21.25
889.474,35.9375
884.211,53.125
878.947,63.125
873.684,68.125
868.421,70.9375
863.158,72.1875
857.895,72.5
852.632,72.1875
847.368,71.875
842.105,71.5625
836.842,71.25
831.579,70.9375
826.316,70.3125
821.053,69.375
815.789,67.8125
810.526,65.3125
805.263,61.25
800.0,51.875
794.737,38.75
789.474,25.0
784.211,18.75
778.947,18.125
773.684,19.0625
768.421,25.3125
763.158,38.75
757.895,49.375
752.632,52.8125
747.368,55.0
742.105,58.125
736.842,60.625
731.579,61.875
726.316,59.0625
721.053,57.5
715.789,61.25
710.526,62.5
705.263,62.5
700,63.125
694.737,63.75
689.474,64.0625
684.211,64.0625
678.947,64.0625
673.684,64.0625
668.421,64.0625
663.158,64.0625
657.895,64.0625
652.632,64.375
647.368,64.6875
642.105,65.0
636.842,65.3125
631.579,65.0
626.316,64.0625
621.053,62.1875
615.789,58.75
610.526,50.9375
605.263,33.125
600,26.25
594.737,26.25
589.474,44.0625
584.211,58.75
578.947,62.5
573.684,65.0
568.421,61.5625
563.158,57.8125
557.895,51.5625
552.632,49.6875
547.368,50.3125
542.105,56.875
536.842,59.6875
531.579,64.375
526.316,66.5625
521.053,67.5
515.789,65.9375
510.526,62.1875
505.263,55.3125
500,45.3125
494.737,32.5
489.474,28.75
484.211,30.3125
478.947,44.0625
473.684,58.125
468.421,59.375
463.158,67.1875
457.895,73.4375
452.632,78.125
447.368,79.6875
442.105,79.6875
436.842,78.4375
431.579,77.1875
426.316,76.5625
421.053,76.875
415.789,77.1875
410.526,78.125
405.263,79.0625
400.0,79.6875