File: data/public/sdbs/processed/samples/tert-pentylferrocene.csv
Wavenumber,Intensity
4000.0,0.0
3994.74,89.375
3989.47,89.375
3984.21,89.375
3978.95,89.375
3973.68,89.375
3968.42,89.6875
3963.16,89.6875
3957.89,89.6875
3952.63,89.6875
3947.37,90.0
3942.11,90.0
3936.84,90.0
3931.58,90.0
3926.32,90.0
3921.05,90.0
3915.79,90.0
3910.53,90.0
3905.26,90.0
3900.0,90.3125
3894.74,90.3125
3889.47,90.625
3884.21,90.3125
3878.95,90.3125
3873.68,90.3125
3868.42,90.3125
3863.16,90.3125
3857.89,90.625
3852.63,90.9375
3847.37,90.9375
3842.11,90.9375
3836.84,90.9375
3831.58,91.25
3826.32,90.9375
3821.05,90.9375
3815.79,91.25
3810.53,91.25
3805.26,91.25
3800.0,91.5625
3794.74,91.875
3789.47,91.875
3784.21,91.875
3778.95,91.875
3773.68,92.1875
3768.42,92.1875
3763.16,92.1875
3757.89,92.5
3752.63,92.1875
3747.37,92.1875
3742.11,92.1875
3736.84,92.5
3731.58,92.5
3726.32,92.8125
3721.05,92.8125
3715.79,92.8125
3710.53,92.8125
3705.26,93.125
3700.0,93.125
3694.74,93.4375
3689.47,93.4375
3684.21,93.125
3678.95,93.125
3673.68,93.125
3668.42,93.4375
3663.16,93.4375
3657.89,93.4375
3652.63,93.4375
3647.37,93.4375
3642.11,93.4375
3636.84,93.4375
3631.58,93.75
3626.32,93.75
3621.05,93.75
3615.79,94.0625
3610.53,94.0625
3605.26,94.0625
3600.0,94.0625
3594.74,94.0625
3589.47,94.0625
3584.21,94.0625
3578.95,94.0625
3573.68,94.0625
3568.42,94.375
3563.16,94.375
3557.89,94.375
3552.63,94.375
3547.37,94.6875
3542.11,94.6875
3536.84,95.0
3531.58,94.6875
3526.32,94.6875
3521.05,94.6875
3515.79,94.6875
3510.53,94.6875
3505.26,94.6875
3500.0,94.6875
3494.74,94.6875
3489.47,94.6875
3484.21,94.6875
3478.95,94.6875
3473.68,94.6875
3468.42,94.375
3463.16,94.375
3457.89,94.0625
3452.63,93.4375
3447.37,93.125
3442.11,92.8125
3436.84,92.1875
3431.58,91.5625
3426.32,90.9375
3421.05,90.0
3415.79,89.375
3410.53,88.75
3405.26,88.4375
3400.0,88.4375
3394.74,88.125
3389.47,87.5
3384.21,85.9375
3378.95,84.0625
3373.68,82.1875
3368.42,81.875
3363.16,82.1875
3357.89,81.5625
3352.63,80.9375
3347.37,79.6875
3342.11,78.125
3336.84,72.5
3331.58,72.5
3326.32,74.6875
3321.05,74.375
3315.79,70.9375
3310.53,69.6875
3305.26,66.875
3300.0,62.8125
3294.74,55.3125
3289.47,48.125
3284.21,32.1875
3278.95,22.5
3273.68,19.375
3268.42,19.0625
3263.16,11.875
3257.89,5.9375
3252.63,4.6875
3247.37,5.0
3242.11,8.75
3236.84,13.125
3231.58,16.25
3226.32,19.0625
3221.05,20.9375
3215.79,18.125
3210.53,15.0
3205.26,11.25
3200.0,11.5625
3194.74,19.375
3189.47,29.6875
3184.21,34.375
3178.95,36.5625
3173.68,38.125
3168.42,39.6875
3163.16,41.5625
3157.89,45.3125
3152.63,48.4375
3147.37,50.3125
3142.11,50.3125
3136.84,50.625
3131.58,51.5625
3126.32,54.0625
3121.05,56.875
3115.79,56.5625
3110.53,54.375
3105.26,54.375
3100.0,55.9375
3094.74,60.3125
3089.47,62.5
3084.21,62.1875
3078.95,60.0
3073.68,61.25
3068.42,66.875
3063.16,69.375
3057.89,63.4375
3052.63,62.8125
3047.37,56.5625
3042.11,49.0625
3036.84,44.0625
3031.58,42.1875
3026.32,42.1875
3021.05,43.125
3015.79,45.9375
3010.53,44.6875
3005.26,44.375
3000.0,49.375
2994.74,55.3125
2989.47,58.4375
2984.21,62.5
2978.95,65.9375
2973.68,68.75
2968.42,70.9375
2963.16,73.4375
2957.89,75.625
2952.63,76.875
2947.37,78.125
2942.11,79.6875
2936.84,80.9375
2931.58,81.5625
2926.32,82.1875
2921.05,82.5
2915.79,82.5
2910.53,81.5625
2905.26,80.9375
2900.0,82.8125
2894.74,84.375
2889.47,85.0
2884.21,85.625
2878.95,86.25
2873.68,86.875
2868.42,87.1875
2863.16,87.5
2857.89,88.125
2852.63,88.125
2847.37,88.4375
2842.11,88.75
2836.84,89.0625
2831.58,89.375
2826.32,89.6875
2821.05,90.0
2815.79,90.3125
2810.53,89.0625
2805.26,88.4375
2800.0,88.75
2794.74,88.75
2789.47,89.0625
2784.21,90.3125
2778.95,90.625
2773.68,90.3125
2768.42,91.875
2763.16,91.5625
2757.89,90.625
2752.63,90.625
2747.37,91.25
2742.11,92.1875
2736.84,92.5
2731.58,92.5
2726.32,92.5
2721.05,92.5
2715.79,92.8125
2710.53,93.125
2705.26,93.4375
2700.0,93.75
2694.74,93.75
2689.47,94.0625
2684.21,94.0625
2678.95,94.0625
2673.68,93.75
2668.42,92.5
2663.16,89.375
2657.89,87.5
2652.63,87.1875
2647.37,87.5
2642.11,88.4375
2636.84,85.625
2631.58,79.0625
2626.32,72.5
2621.05,70.625
2615.79,71.875
2610.53,77.5
2605.26,77.1875
2600.0,76.5625
2594.74,76.875
2589.47,78.4375
2584.21,80.0
2578.95,81.875
2573.68,83.75
2568.42,84.6875
2563.16,85.3125
2557.89,85.625
2552.63,86.25
2547.37,87.8125
2542.11,89.0625
2536.84,89.6875
2531.58,90.0
2526.32,90.3125
2521.05,90.625
2515.79,90.625
2510.53,90.3125
2505.26,89.6875
2500.0,89.375
2494.74,89.6875
2489.47,89.6875
2484.21,89.6875
2478.95,89.6875
2473.68,89.6875
2468.42,89.6875
2463.16,90.3125
2457.89,90.625
2452.63,90.9375
2447.37,90.9375
2442.11,90.0
2436.84,90.0
2431.58,90.625
2426.32,91.5625
2421.05,92.1875
2415.79,92.1875
2410.53,92.5
2405.26,92.5
2400.0,92.8125
2394.74,92.8125
2389.47,93.125
2384.21,93.125
2378.95,93.4375
2373.68,93.4375
2368.42,93.4375
2363.16,93.75
2357.89,93.75
2352.63,93.4375
2347.37,93.4375
2342.11,93.125
2336.84,93.125
2331.58,92.5
2326.32,92.5
2321.05,92.8125
2315.79,92.8125
2310.53,92.8125
2305.26,92.8125
2300.0,93.125
2294.74,93.125
2289.47,93.125
2284.21,93.125
2278.95,93.4375
2273.68,93.4375
2268.42,93.4375
2263.16,93.4375
2257.89,93.4375
2252.63,93.4375
2247.37,93.4375
2242.11,93.4375
2236.84,93.4375
2231.58,93.75
2226.32,93.75
2221.05,94.0625
2215.79,94.0625
2210.53,94.0625
2205.26,94.0625
2200.0,94.0625
2194.74,94.0625
2189.47,94.0625
2184.21,94.0625
2178.95,94.0625
2173.68,94.0625
2168.42,94.0625
2163.16,94.0625
2157.89,94.0625
2152.63,93.75
2147.37,93.4375
2142.11,93.4375
2136.84,93.125
2131.58,93.125
2126.32,93.125
2121.05,92.8125
2115.79,92.5
2110.53,91.5625
2105.26,89.0625
2100.0,89.375
2094.74,91.25
2089.47,90.9375
2084.21,90.9375
2078.95,91.5625
2073.68,91.875
2068.42,91.5625
2063.16,79.375
2057.89,75.0
2052.63,83.75
2047.37,84.6875
2042.11,83.4375
2036.84,80.0
2031.58,77.5
2026.32,76.875
2021.05,78.125
2015.79,81.25
2010.53,84.375
2005.26,86.25
2000,86.875
1994.74,87.1875
1989.47,87.1875
1984.21,87.1875
1978.95,87.5
1973.68,87.5
1968.42,87.8125
1963.16,87.5
1957.89,85.625
1952.63,81.25
1947.37,70.3125
1942.11,70.625
1936.84,83.125
1931.58,86.25
1926.32,87.1875
1921.05,81.875
1915.79,57.1875
1910.53,48.125
1905.26,54.0625
1900.0,70.3125
1894.74,76.875
1889.47,79.6875
1884.21,77.1875
1878.95,70.625
1873.68,64.0625
1868.42,48.4375
1863.16,47.1875
1857.89,63.125
1852.63,67.8125
1847.37,74.0625
1842.11,77.1875
1836.84,80.3125
1831.58,83.4375
1826.32,85.625
1821.05,88.125
1815.79,89.375
1810.53,90.3125
1805.26,91.25
1800.0,91.5625
1794.74,91.5625
1789.47,91.5625
1784.21,91.25
1778.95,91.25
1773.68,90.9375
1768.42,90.3125
1763.16,86.875
1757.89,83.75
1752.63,79.6875
1747.37,79.0625
1742.11,80.625
1736.84,86.25
1731.58,86.875
1726.32,88.4375
1721.05,90.3125
1715.79,90.625
1710.53,90.9375
1705.26,90.9375
1700.0,91.25
1694.74,91.5625
1689.47,91.875
1684.21,91.5625
1678.95,87.5
1673.68,88.4375
1668.42,91.5625
1663.16,91.875
1657.89,91.875
1652.63,92.1875
1647.37,92.1875
1642.11,92.1875
1636.84,91.875
1631.58,89.0625
1626.32,88.75
1621.05,90.625
1615.79,91.5625
1610.53,92.1875
1605.26,92.8125
1600.0,93.125
1594.74,93.4375
1589.47,93.4375
1584.21,93.4375
1578.95,93.4375
1573.68,93.4375
1568.42,93.4375
1563.16,93.125
1557.89,93.125
1552.63,93.125
1547.37,93.125
1542.11,93.125
1536.84,93.125
1531.58,93.125
1526.32,93.4375
1521.05,93.4375
1515.79,93.4375
1510.53,93.125
1505.26,84.375
1500.0,85.0
1494.74,87.8125
1489.47,91.25
1484.21,92.1875
1478.95,92.1875
1473.68,91.5625
1468.42,87.8125
1463.16,89.0625
1457.89,90.9375
1452.63,90.9375
1447.37,90.625
1442.11,90.625
1436.84,90.625
1431.58,88.125
1426.32,85.9375
1421.05,85.9375
1415.79,87.1875
1410.53,90.0
1405.26,91.5625
1400.0,91.875
1394.74,91.875
1389.47,91.875
1384.21,90.9375
1378.95,86.875
1373.68,85.625
1368.42,89.0625
1363.16,90.3125
1357.89,90.625
1352.63,91.875
1347.37,93.125
1342.11,93.4375
1336.84,93.75
1331.58,94.0625
1326.32,94.0625
1321.05,93.75
1315.79,93.125
1310.53,89.375
1305.26,89.375
1300.0,91.25
1294.74,93.125
1289.47,93.75
1284.21,93.75
1278.95,93.4375
1273.68,92.5
1268.42,85.3125
1263.16,82.8125
1257.89,88.75
1252.63,90.9375
1247.37,92.1875
1242.11,93.125
1236.84,93.125
1231.58,87.8125
1226.32,93.4375
1221.05,94.0625
1215.79,94.0625
1210.53,94.375
1205.26,94.375
1200.0,94.0625
1194.74,94.0625
1189.47,94.0625
1184.21,94.0625
1178.95,93.75
1173.68,93.75
1168.42,93.75
1163.16,93.75
1157.89,93.75
1152.63,93.75
1147.37,93.75
1142.11,93.75
1136.84,93.4375
1131.58,93.4375
1126.32,93.4375
1121.05,93.4375
1115.79,93.4375
1110.53,93.4375
1105.26,93.4375
1100.0,93.125
1094.74,90.625
1089.47,90.9375
1084.21,93.4375
1078.95,93.4375
1073.68,93.75
1068.42,93.75
1063.16,93.75
1057.89,93.4375
1052.63,93.4375
1047.37,93.125
1042.11,93.125
1036.84,93.125
1031.58,93.125
1026.32,93.125
1021.05,93.125
1015.79,93.125
1010.53,93.4375
1005.26,93.75
1000.0,93.75
994.737,94.0625
989.474,94.0625
984.211,94.0625
978.947,94.0625
973.684,93.75
968.421,93.75
963.158,93.4375
957.895,93.4375
952.632,93.4375
947.368,93.4375
942.105,93.4375
936.842,93.4375
931.579,93.75
926.316,93.75
921.053,92.8125
915.789,91.875
910.526,91.875
905.263,92.1875
900.0,92.8125
894.737,92.5
889.474,89.375
884.211,85.0
878.947,78.75
873.684,56.875
868.421,40.0
863.158,41.25
857.895,71.875
852.632,82.8125
847.368,86.875
842.105,86.875
836.842,87.1875
831.579,88.4375
826.316,90.3125
821.053,90.9375
815.789,91.875
810.526,91.875
805.263,90.3125
800.0,85.0
794.737,54.375
789.474,52.8125
784.211,76.875
778.947,87.8125
773.684,90.9375
768.421,92.1875
763.158,92.5
757.895,92.5
752.632,92.5
747.368,92.5
742.105,92.5
736.842,92.8125
731.579,92.8125
726.316,93.125
721.053,92.1875
715.789,93.125
710.526,92.8125
705.263,92.8125
700,84.0625
694.737,83.4375
689.474,91.875
684.211,92.8125
678.947,93.125
673.684,93.4375
668.421,93.4375
663.158,93.4375
657.895,93.125
652.632,92.8125
647.368,92.8125
642.105,92.5
636.842,92.5
631.579,92.5
626.316,92.5
621.053,92.5
615.789,92.5
610.526,92.5
605.263,92.8125
600,92.8125
594.737,93.125
589.474,93.125
584.211,92.5
578.947,91.875
573.684,90.9375
568.421,87.8125
563.158,82.5
557.895,87.1875
552.632,90.9375
547.368,91.25
542.105,91.25
536.842,90.9375
531.579,90.625
526.316,90.0
521.053,89.6875
515.789,88.4375
510.526,83.4375
505.263,73.75
500,47.8125
494.737,45.3125
489.474,68.75
484.211,82.5
478.947,87.1875
473.684,88.4375
468.421,89.375
463.158,92.8125
457.895,91.5625
452.632,90.3125
447.368,88.75
442.105,86.875
436.842,83.75
431.579,80.0
426.316,75.625
421.053,71.25
415.789,66.5625
410.526,62.1875
405.263,59.0625
400.0,57.8125