File: data/public/sdbs/processed/samples/tetrahydrothiophene 1,1-dioxide.csv
Wavenumber,Intensity
4000.0,0.0
3994.74,93.125
3989.47,93.125
3984.21,93.125
3978.95,93.125
3973.68,92.8125
3968.42,92.5
3963.16,92.5
3957.89,92.5
3952.63,92.5
3947.37,92.5
3942.11,92.1875
3936.84,92.1875
3931.58,92.1875
3926.32,92.1875
3921.05,92.1875
3915.79,92.1875
3910.53,92.1875
3905.26,91.875
3900.0,91.875
3894.74,91.875
3889.47,91.875
3884.21,91.875
3878.95,91.5625
3873.68,91.5625
3868.42,91.25
3863.16,91.25
3857.89,91.25
3852.63,91.25
3847.37,91.25
3842.11,90.9375
3836.84,90.9375
3831.58,90.9375
3826.32,90.625
3821.05,90.625
3815.79,90.625
3810.53,90.625
3805.26,90.9375
3800.0,90.9375
3794.74,90.3125
3789.47,90.0
3784.21,89.0625
3778.95,88.125
3773.68,86.875
3768.42,85.3125
3763.16,82.8125
3757.89,80.0
3752.63,76.875
3747.37,74.0625
3742.11,70.625
3736.84,68.125
3731.58,66.5625
3726.32,65.9375
3721.05,65.9375
3715.79,66.25
3710.53,66.875
3705.26,68.125
3700.0,69.375
3694.74,70.3125
3689.47,70.625
3684.21,70.625
3678.95,70.9375
3673.68,71.25
3668.42,72.1875
3663.16,73.4375
3657.89,75.3125
3652.63,76.875
3647.37,78.125
3642.11,78.75
3636.84,79.6875
3631.58,80.0
3626.32,80.3125
3621.05,80.3125
3615.79,80.625
3610.53,80.9375
3605.26,80.9375
3600.0,81.25
3594.74,81.25
3589.47,81.25
3584.21,81.25
3578.95,81.5625
3573.68,81.875
3568.42,81.875
3563.16,82.1875
3557.89,82.5
3552.63,82.8125
3547.37,83.125
3542.11,83.4375
3536.84,83.75
3531.58,83.75
3526.32,84.0625
3521.05,84.0625
3515.79,83.75
3510.53,83.75
3505.26,83.75
3500.0,83.75
3494.74,83.75
3489.47,83.4375
3484.21,83.4375
3478.95,83.4375
3473.68,83.4375
3468.42,83.4375
3463.16,83.75
3457.89,84.0625
3452.63,84.375
3447.37,84.6875
3442.11,85.0
3436.84,85.3125
3431.58,85.625
3426.32,85.9375
3421.05,86.25
3415.79,86.5625
3410.53,86.875
3405.26,86.875
3400.0,87.1875
3394.74,87.1875
3389.47,87.1875
3384.21,87.5
3378.95,87.5
3373.68,87.5
3368.42,87.5
3363.16,87.1875
3357.89,86.875
3352.63,86.5625
3347.37,86.25
3342.11,85.3125
3336.84,84.375
3331.58,83.4375
3326.32,81.25
3321.05,77.1875
3315.79,72.1875
3310.53,70.9375
3305.26,70.9375
3300.0,68.4375
3294.74,63.75
3289.47,61.25
3284.21,59.0625
3278.95,54.0625
3273.68,50.625
3268.42,51.25
3263.16,58.75
3257.89,68.125
3252.63,74.375
3247.37,76.5625
3242.11,78.75
3236.84,80.9375
3231.58,77.5
3226.32,73.75
3221.05,73.75
3215.79,76.875
3210.53,82.1875
3205.26,85.9375
3200.0,89.0625
3194.74,90.3125
3189.47,90.9375
3184.21,91.5625
3178.95,91.875
3173.68,92.1875
3168.42,92.1875
3163.16,92.1875
3157.89,92.1875
3152.63,92.1875
3147.37,92.5
3142.11,92.8125
3136.84,92.8125
3131.58,92.8125
3126.32,92.8125
3121.05,92.8125
3115.79,93.125
3110.53,93.125
3105.26,93.125
3100.0,93.125
3094.74,93.125
3089.47,93.125
3084.21,93.125
3078.95,93.125
3073.68,93.125
3068.42,93.125
3063.16,93.125
3057.89,93.125
3052.63,92.8125
3047.37,92.8125
3042.11,92.8125
3036.84,92.8125
3031.58,92.8125
3026.32,93.125
3021.05,93.125
3015.79,93.125
3010.53,93.125
3005.26,93.125
3000.0,93.125
2994.74,93.125
2989.47,93.125
2984.21,93.125
2978.95,93.125
2973.68,93.125
2968.42,93.125
2963.16,93.125
2957.89,93.125
2952.63,92.8125
2947.37,92.8125
2942.11,92.8125
2936.84,92.5
2931.58,92.5
2926.32,92.1875
2921.05,91.875
2915.79,91.875
2910.53,91.5625
2905.26,90.9375
2900.0,90.3125
2894.74,90.0
2889.47,90.0
2884.21,90.625
2878.95,90.9375
2873.68,91.25
2868.42,91.5625
2863.16,91.5625
2857.89,91.5625
2852.63,91.5625
2847.37,91.5625
2842.11,91.5625
2836.84,91.5625
2831.58,91.5625
2826.32,91.5625
2821.05,91.875
2815.79,91.875
2810.53,92.1875
2805.26,92.1875
2800.0,91.875
2794.74,91.875
2789.47,91.5625
2784.21,91.5625
2778.95,91.25
2773.68,91.25
2768.42,90.9375
2763.16,90.9375
2757.89,90.9375
2752.63,90.9375
2747.37,90.9375
2742.11,91.5625
2736.84,91.875
2731.58,92.1875
2726.32,92.5
2721.05,92.5
2715.79,92.8125
2710.53,92.8125
2705.26,92.8125
2700.0,92.8125
2694.74,92.8125
2689.47,92.8125
2684.21,92.8125
2678.95,92.5
2673.68,92.5
2668.42,92.5
2663.16,92.5
2657.89,92.5
2652.63,92.5
2647.37,92.8125
2642.11,92.8125
2636.84,92.8125
2631.58,93.125
2626.32,92.8125
2621.05,92.8125
2615.79,92.8125
2610.53,92.8125
2605.26,92.8125
2600.0,92.8125
2594.74,92.8125
2589.47,92.8125
2584.21,92.8125
2578.95,92.8125
2573.68,92.8125
2568.42,93.125
2563.16,93.125
2557.89,93.125
2552.63,93.125
2547.37,92.8125
2542.11,92.8125
2536.84,92.8125
2531.58,92.8125
2526.32,92.8125
2521.05,93.125
2515.79,93.125
2510.53,93.125
2505.26,93.4375
2500.0,93.4375
2494.74,93.4375
2489.47,93.75
2484.21,93.75
2478.95,93.75
2473.68,93.75
2468.42,93.75
2463.16,93.75
2457.89,93.75
2452.63,93.4375
2447.37,93.4375
2442.11,93.4375
2436.84,93.4375
2431.58,93.4375
2426.32,93.4375
2421.05,93.4375
2415.79,93.4375
2410.53,93.4375
2405.26,93.4375
2400.0,93.4375
2394.74,93.4375
2389.47,93.75
2384.21,93.75
2378.95,93.75
2373.68,93.75
2368.42,93.75
2363.16,93.75
2357.89,93.75
2352.63,93.75
2347.37,93.4375
2342.11,93.4375
2336.84,93.4375
2331.58,93.4375
2326.32,93.4375
2321.05,93.4375
2315.79,93.4375
2310.53,93.4375
2305.26,93.4375
2300.0,93.4375
2294.74,93.4375
2289.47,93.4375
2284.21,93.4375
2278.95,93.4375
2273.68,93.4375
2268.42,93.4375
2263.16,93.4375
2257.89,93.4375
2252.63,93.4375
2247.37,93.4375
2242.11,93.125
2236.84,93.125
2231.58,93.125
2226.32,92.8125
2221.05,92.8125
2215.79,92.8125
2210.53,92.8125
2205.26,92.5
2200.0,92.5
2194.74,92.5
2189.47,92.5
2184.21,92.5
2178.95,92.1875
2173.68,92.1875
2168.42,91.875
2163.16,91.5625
2157.89,91.25
2152.63,90.625
2147.37,90.0
2142.11,89.0625
2136.84,88.125
2131.58,87.1875
2126.32,86.25
2121.05,85.0
2115.79,84.375
2110.53,84.375
2105.26,84.6875
2100.0,84.6875
2094.74,85.3125
2089.47,85.9375
2084.21,87.1875
2078.95,88.4375
2073.68,90.0
2068.42,90.9375
2063.16,91.875
2057.89,92.1875
2052.63,93.125
2047.37,94.0625
2042.11,94.6875
2036.84,94.6875
2031.58,94.6875
2026.32,94.6875
2021.05,94.6875
2015.79,94.6875
2010.53,94.6875
2005.26,94.375
2000,94.375
1994.74,94.375
1989.47,94.375
1984.21,94.375
1978.95,94.0625
1973.68,94.0625
1968.42,93.75
1963.16,93.4375
1957.89,93.4375
1952.63,93.4375
1947.37,93.125
1942.11,92.8125
1936.84,92.5
1931.58,92.1875
1926.32,92.1875
1921.05,91.875
1915.79,91.875
1910.53,91.5625
1905.26,91.5625
1900.0,90.9375
1894.74,90.3125
1889.47,89.0625
1884.21,86.875
1878.95,84.375
1873.68,80.0
1868.42,79.0625
1863.16,78.125
1857.89,74.6875
1852.63,67.8125
1847.37,66.5625
1842.11,70.625
1836.84,78.75
1831.58,81.875
1826.32,81.875
1821.05,78.125
1815.79,71.875
1810.53,61.875
1805.26,49.0625
1800.0,47.5
1794.74,53.125
1789.47,66.25
1784.21,76.5625
1778.95,82.5
1773.68,85.625
1768.42,86.5625
1763.16,87.1875
1757.89,87.5
1752.63,87.5
1747.37,87.1875
1742.11,86.875
1736.84,86.25
1731.58,85.3125
1726.32,84.375
1721.05,82.5
1715.79,80.625
1710.53,78.4375
1705.26,75.625
1700.0,72.5
1694.74,67.8125
1689.47,61.875
1684.21,51.5625
1678.95,38.4375
1673.68,23.75
1668.42,14.6875
1663.16,10.625
1657.89,9.0625
1652.63,6.5625
1647.37,5.0
1642.11,4.6875
1636.84,4.6875
1631.58,6.5625
1626.32,10.3125
1621.05,15.0
1615.79,17.1875
1610.53,15.3125
1605.26,15.3125
1600.0,18.125
1594.74,21.5625
1589.47,17.1875
1584.21,16.5625
1578.95,17.1875
1573.68,27.1875
1568.42,44.0625
1563.16,57.1875
1557.89,66.5625
1552.63,71.25
1547.37,75.0
1542.11,76.875
1536.84,77.8125
1531.58,77.5
1526.32,76.5625
1521.05,75.3125
1515.79,73.125
1510.53,72.1875
1505.26,72.1875
1500.0,73.125
1494.74,74.375
1489.47,75.625
1484.21,75.3125
1478.95,74.0625
1473.68,72.1875
1468.42,68.75
1463.16,64.0625
1457.89,56.875
1452.63,45.625
1447.37,30.0
1442.11,15.625
1436.84,10.3125
1431.58,9.0625
1426.32,9.375
1421.05,12.5
1415.79,20.3125
1410.53,32.5
1405.26,38.125
1400.0,35.0
1394.74,27.5
1389.47,18.75
1384.21,11.875
1378.95,10.625
1373.68,10.625
1368.42,16.875
1363.16,31.5625
1357.89,44.375
1352.63,48.75
1347.37,49.375
1342.11,49.6875
1336.84,53.4375
1331.58,61.5625
1326.32,71.875
1321.05,79.6875
1315.79,83.4375
1310.53,85.625
1305.26,86.875
1300.0,87.8125
1294.74,87.8125
1289.47,86.875
1284.21,84.6875
1278.95,79.6875
1273.68,75.625
1268.42,75.625
1263.16,80.9375
1257.89,85.9375
1252.63,88.75
1247.37,90.3125
1242.11,90.3125
1236.84,90.0
1231.58,89.6875
1226.32,89.0625
1221.05,88.75
1215.79,88.125
1210.53,88.125
1205.26,88.4375
1200.0,88.75
1194.74,89.0625
1189.47,89.375
1184.21,89.6875
1178.95,90.0
1173.68,90.3125
1168.42,90.625
1163.16,90.9375
1157.89,91.25
1152.63,91.25
1147.37,91.25
1142.11,90.9375
1136.84,90.625
1131.58,89.6875
1126.32,88.125
1121.05,85.0
1115.79,78.4375
1110.53,66.25
1105.26,49.6875
1100.0,39.6875
1094.74,39.375
1089.47,45.9375
1084.21,57.1875
1078.95,67.8125
1073.68,76.5625
1068.42,82.8125
1063.16,85.3125
1057.89,86.875
1052.63,87.8125
1047.37,88.4375
1042.11,89.375
1036.84,90.0
1031.58,90.9375
1026.32,91.5625
1021.05,91.875
1015.79,92.1875
1010.53,92.5
1005.26,92.8125
1000.0,93.125
994.737,93.125
989.474,93.125
984.211,93.125
978.947,92.8125
973.684,92.5
968.421,91.875
963.158,91.5625
957.895,90.9375
952.632,90.3125
947.368,89.6875
942.105,89.0625
936.842,88.75
931.579,88.125
926.316,87.8125
921.053,87.5
915.789,87.1875
910.526,86.25
905.263,85.625
900.0,84.375
894.737,82.5
889.474,79.6875
884.211,74.375
878.947,68.75
873.684,58.125
868.421,44.375
863.158,33.125
857.895,31.875
852.632,32.8125
847.368,43.4375
842.105,56.25
836.842,67.8125
831.579,74.6875
826.316,80.0
821.053,82.5
815.789,85.0
810.526,86.5625
805.263,86.875
800.0,86.25
794.737,85.0
789.474,83.4375
784.211,81.875
778.947,78.125
773.684,75.625
768.421,75.625
763.158,79.0625
757.895,84.375
752.632,87.1875
747.368,89.6875
742.105,90.9375
736.842,90.625
731.579,90.625
726.316,90.3125
721.053,90.3125
715.789,90.0
710.526,89.6875
705.263,89.375
700,89.0625
694.737,88.75
689.474,88.4375
684.211,88.125
678.947,87.8125
673.684,87.5
668.421,87.1875
663.158,86.25
657.895,84.6875
652.632,81.875
647.368,77.5
642.105,71.25
636.842,51.25
631.579,24.0625
626.316,23.4375
621.053,38.75
615.789,65.3125
610.526,77.1875
605.263,82.1875
600,84.375
594.737,84.6875
589.474,84.375
584.211,83.75
578.947,81.5625
573.684,77.8125
568.421,73.75
563.158,71.25
557.895,70.3125
552.632,70.9375
547.368,74.375
542.105,78.4375
536.842,78.125
531.579,79.6875
526.316,80.9375
521.053,81.5625
515.789,81.25
510.526,81.25
505.263,81.25
500,81.25
494.737,80.9375
489.474,80.3125
484.211,79.6875
478.947,77.8125
473.684,61.875
468.421,53.4375
463.158,48.125
457.895,43.125
452.632,40.9375
447.368,40.0
442.105,40.0
436.842,40.625
431.579,42.1875
426.316,44.0625
421.053,46.25
415.789,47.8125
410.526,49.6875
405.263,51.5625
400.0,52.5